timestamp(unix),attitude_roll(radians),attitude_pitch(radians),attitude_yaw(radians),rotation_rate_x(radians/s),rotation_rate_y(radians/s),rotation_rate_z(radians/s),gravity_x(G),gravity_y(G),gravity_z(G),user_acc_x(G),user_acc_y(G),user_acc_z(G),magnetic_field_x(microteslas),magnetic_field_y(microteslas),magnetic_field_z(microteslas),latitude(degree),longitude(degree),altitude(meter),speed(m/s),course(degree),timestamp(unix)
1480499939.58,-0.031741,0.434384,2.800426,0.528661,0.615299,0.495812,-0.028788,-0.420852,-0.906672,-0.004583,-0.075440,-0.153157,5.000975,-34.387592,7.649590,,,,,,
1480499939.57,-0.035866,0.428400,2.794570,0.688093,0.618474,0.420111,-0.032618,-0.415416,-0.909047,-0.000753,-0.080876,-0.150783,5.000975,-34.387592,7.649590,,,,,,
1480499939.59,-0.027594,0.438569,2.806810,0.375347,0.654001,0.530313,-0.024979,-0.424645,-0.905016,0.075562,-0.094734,-0.245650,4.575212,-34.324322,8.181738,,,,,,
1480499939.60,-0.022437,0.442203,2.811894,0.361733,0.687113,0.347085,-0.020277,-0.427932,-0.903583,0.106077,-0.100343,-0.134045,4.575212,-34.324322,8.181738,,,,,,
1480499939.61,-0.013526,0.447441,2.808844,0.518956,0.726540,-0.500390,-0.012194,-0.432660,-0.901475,0.093828,-0.108188,0.018601,4.107945,-34.300846,8.521112,,,,,,
1480499939.62,-0.001294,0.453669,2.797966,0.585903,0.679089,-0.995601,-0.001163,-0.438267,-0.898844,0.052387,-0.089687,0.135066,4.107945,-34.300846,8.521112,,,,,,
1480499939.63,0.009075,0.459252,2.787755,0.494123,0.483292,-0.760471,0.008135,-0.443278,-0.896347,0.020903,-0.041158,0.190827,4.410071,-34.147816,8.972773,,,,,,
1480499939.64,0.013401,0.463378,2.782919,0.360044,0.098319,-0.282387,0.011987,-0.446973,-0.894467,0.008505,0.045987,0.155667,4.410071,-34.147816,8.972773,,,,,,
1480499939.65,0.011398,0.466465,2.782984,0.263890,-0.265948,0.091053,0.010180,-0.449732,-0.893106,-0.042269,0.168299,0.092752,4.794234,-33.996326,9.343330,,,,,,
1480499939.67,0.005651,0.468577,2.785689,0.180109,-0.456930,0.257883,0.005042,-0.451617,-0.892198,-0.126242,0.138858,0.028413,4.794234,-33.996326,9.343330,,,,,,
1480499939.68,-0.000381,0.471034,2.789195,0.259625,-0.385337,0.296968,-0.000340,-0.453808,-0.891099,-0.121730,0.228436,0.077425,4.769697,-33.959671,9.488058,,,,,,
1480499939.69,-0.005635,0.475228,2.792421,0.440927,-0.362727,0.249539,-0.005010,-0.457541,-0.889174,0.200750,0.029380,0.140029,4.705644,-33.951202,9.550149,,,,,,
1480499939.70,-0.012070,0.481670,2.794299,0.660485,-0.589556,0.108931,-0.010696,-0.463260,-0.886158,0.234405,0.049640,0.153965,4.644991,-33.924168,9.675097,,,,,,
1480499939.71,-0.019789,0.490940,2.793347,0.937051,-0.811008,-0.171010,-0.017451,-0.471455,-0.881718,0.258509,0.075596,0.035160,4.644991,-33.924168,9.675097,,,,,,
1480499939.72,-0.028080,0.503481,2.789134,1.238092,-1.017780,-0.431022,-0.024592,-0.482477,-0.875563,0.265651,0.086619,0.029005,4.644991,-33.924168,9.675097,,,,,,
1480499939.73,-0.037839,0.518596,2.783043,1.434028,-1.244907,-0.565422,-0.032856,-0.495661,-0.867894,0.227818,0.150263,-0.001689,5.001223,-33.623203,10.511923,,,,,,
1480499939.74,-0.050066,0.533760,2.778098,1.363553,-1.418964,-0.380974,-0.043084,-0.508774,-0.859821,0.085320,0.248032,0.005543,5.001223,-33.623203,10.511923,,,,,,
1480499939.75,-0.067424,0.547690,2.784110,1.348140,-1.223229,0.695663,-0.057518,-0.520717,-0.851790,0.024743,0.387630,-0.078264,5.661361,-33.238918,11.364672,,,,,,
1480499939.76,-0.087299,0.562910,2.802184,1.593401,-0.913259,1.476702,-0.073736,-0.533650,-0.842485,-0.025645,0.473530,-0.084715,5.661361,-33.238918,11.364672,,,,,,
1480499939.77,-0.108433,0.577848,2.825199,1.511793,-0.768258,1.688693,-0.090650,-0.546223,-0.832720,0.005140,0.481083,-0.018934,5.339766,-32.980827,12.238651,,,,,,
1480499939.78,-0.123534,0.587865,2.846935,0.973549,-0.065301,1.514735,-0.102535,-0.554586,-0.825785,0.111690,0.414831,0.099314,5.339766,-32.980827,12.238651,,,,,,
1480499939.79,-0.124630,0.591641,2.864007,0.368928,1.049065,1.190787,-0.103178,-0.557724,-0.823588,0.413786,0.334198,0.270534,4.348800,-32.784157,13.127059,,,,,,
1480499939.81,-0.098537,0.587023,2.885814,-0.305141,1.969888,0.680760,-0.081909,-0.553885,-0.828555,0.193786,-0.148020,0.265475,3.791492,-32.766727,13.341620,,,,,,
1480499939.80,-0.114337,0.590663,2.876625,-0.070626,1.766349,0.922442,-0.094758,-0.556912,-0.825149,0.206635,-0.144993,0.262069,3.791492,-32.766727,13.341620,,,,,,
1480499939.83,-0.083504,0.583286,2.891389,-0.285758,1.557438,0.397084,-0.069616,-0.550769,-0.831749,-0.125712,-0.346768,0.244789,2.672706,-32.860992,13.380751,,,,,,
1480499939.84,-0.075470,0.581353,2.895270,-0.104991,0.738434,0.316025,-0.063012,-0.549155,-0.833342,-0.368461,-0.479165,-0.519182,2.267494,-32.917305,13.316990,,,,,,
1480499939.85,-0.076504,0.581566,2.899594,0.092149,-0.070686,0.334190,-0.063865,-0.549333,-0.833159,-0.244165,-0.445357,-0.924119,2.267494,-32.917305,13.316990,,,,,,
1480499939.86,-0.083129,0.583790,2.902682,0.268877,-0.567052,0.175552,-0.069281,-0.551190,-0.831498,-0.238748,-0.443500,-0.925780,2.267494,-32.917305,13.316990,,,,,,
1480499939.87,-0.091915,0.587864,2.903549,0.425945,-0.829397,-0.009500,-0.076377,-0.554585,-0.828614,-0.210579,-0.574672,-1.258330,1.871671,-32.919479,13.372999,,,,,,
1480499939.88,-0.099359,0.593906,2.903304,0.611571,-0.614293,-0.079509,-0.082210,-0.559603,-0.824674,-0.341847,-0.793394,-1.512790,1.871671,-32.919479,13.372999,,,,,,
1480499939.89,-0.100627,0.601890,2.903718,0.777054,0.102744,-0.028311,-0.082804,-0.566201,-0.820098,-0.307577,-0.807655,-1.644502,2.099886,-32.781796,13.673958,,,,,,
1480499939.90,-0.093676,0.609502,2.903697,0.664696,0.807701,-0.107081,-0.076696,-0.572460,-0.816338,-0.202815,-0.698292,-1.654151,2.099886,-32.781796,13.673958,,,,,,
1480499939.91,-0.079961,0.614978,2.900797,0.430413,1.197753,-0.322201,-0.065242,-0.576940,-0.814176,-0.202733,-0.610926,-1.577501,-1.864166,-31.669458,16.145084,,,,,,
1480499939.92,-0.062824,0.618113,2.894400,0.207357,1.263961,-0.569593,-0.051166,-0.579498,-0.813366,-0.301327,-0.670059,-1.054264,-1.969729,-31.589783,16.288010,,,,,,
1480499939.93,-0.042388,0.619806,2.884007,0.098482,1.384169,-0.888054,-0.034493,-0.580877,-0.813260,-0.318001,-0.668680,-1.054370,-1.969729,-31.589783,16.288010,,,,,,
1480499939.94,-0.019492,0.622076,2.869311,0.226154,1.289889,-1.179996,-0.015839,-0.582724,-0.812516,-0.341705,-0.714304,-0.826537,-1.983656,-31.552370,16.358677,,,,,,
1480499939.95,0.001018,0.626305,2.852564,0.429779,0.909867,-1.295974,0.000825,-0.586155,-0.810199,-0.340318,-0.637860,-0.656018,-1.983656,-31.552370,16.358677,,,,,,
1480499939.96,0.018629,0.631518,2.835034,0.517670,0.612113,-1.331666,0.015036,-0.590371,-0.806992,-0.230596,-0.397239,-0.550857,-1.586193,-31.500107,16.502140,,,,,,
1480499939.98,0.037107,0.637683,2.814133,0.665900,0.600540,-1.664218,0.029808,-0.595335,-0.802924,-0.202675,-0.297182,-0.483544,-1.586193,-31.500107,16.502140,,,,,,
1480499939.99,0.061626,0.645730,2.788100,0.908169,0.899858,-1.928276,0.049187,-0.601782,-0.797145,-0.179223,-0.185053,-0.397908,-0.842111,-31.337852,16.861885,,,,,,
1480499940.00,0.083679,0.654667,2.770279,0.913175,1.133997,-0.962300,0.066301,-0.608895,-0.790475,-0.135545,-0.142829,-0.216819,-0.842111,-31.337852,16.861885,,,,,,
1480499940.01,0.102195,0.662504,2.762704,0.722931,1.324523,-0.447226,0.080436,-0.615093,-0.784341,-0.008415,-0.119832,0.030923,-0.129987,-31.027271,17.446632,,,,,,
1480499940.02,0.121868,0.667810,2.754194,0.525729,1.321838,-0.588831,0.095451,-0.619268,-0.779356,0.141945,-0.081034,0.280989,-0.129987,-31.027271,17.446632,,,,,,
1480499940.03,0.135697,0.673263,2.745650,0.634148,0.557018,-0.552391,0.105762,-0.623540,-0.774605,0.101132,0.029622,0.450722,-0.281542,-30.775608,17.885080,,,,,,
1480499940.04,0.139924,0.681599,2.736018,0.949890,-0.383329,-0.598430,0.108306,-0.630035,-0.768977,-0.144851,0.343796,0.590586,-0.252325,-30.664503,18.075338,,,,,,
1480499940.05,0.137785,0.692515,2.726367,1.142779,-0.845779,-0.523207,0.105710,-0.638475,-0.762348,-0.142255,0.352235,0.583958,-0.252325,-30.664503,18.075338,,,,,,
1480499940.06,0.133789,0.703830,2.718060,1.104761,-0.855730,-0.421076,0.101693,-0.647143,-0.755556,-0.046669,0.518038,0.490358,0.304757,-30.275780,18.718378,,,,,,
1480499940.07,0.131126,0.713758,2.711355,0.940953,-0.593550,-0.314890,0.098835,-0.654679,-0.749418,-0.035801,0.608399,0.244031,0.304757,-30.275780,18.718378,,,,,,
1480499940.08,0.129695,0.722450,2.706942,0.812784,-0.328486,-0.174393,0.097023,-0.661225,-0.743887,0.068520,0.647492,0.113974,0.872136,-29.840412,19.387691,,,,,,
1480499940.09,0.130850,0.729620,2.703719,0.651457,-0.018516,-0.126183,0.097261,-0.666586,-0.739056,0.125807,0.743643,0.263363,0.872136,-29.840412,19.387691,,,,,,
1480499940.10,0.134604,0.735412,2.701156,0.541615,0.252645,-0.100740,0.099515,-0.670893,-0.734847,-0.050610,0.657343,0.934325,1.083779,-29.513485,19.871412,,,,,,
1480499940.11,0.141218,0.741558,2.698016,0.641442,0.473831,-0.155651,0.103791,-0.675438,-0.730076,-0.084473,0.642998,0.938023,1.076105,-29.392641,20.050140,,,,,,
1480499940.13,0.150256,0.750552,2.692705,0.978402,0.492410,-0.264312,0.109471,-0.682043,-0.723072,-0.090153,0.649603,0.931019,1.076105,-29.392641,20.050140,,,,,,
1480499940.14,0.158618,0.762960,2.685534,1.285294,0.252463,-0.305142,0.114168,-0.691064,-0.713720,-0.153994,0.714761,0.887579,1.076105,-29.392641,20.050140,,,,,,
1480499940.15,0.163502,0.776436,2.678645,1.301780,-0.073593,-0.228608,0.116126,-0.700742,-0.703901,-0.191474,0.740735,0.762296,1.014404,-28.792677,20.905649,,,,,,
1480499940.16,0.163065,0.788181,2.674098,1.064785,-0.425552,-0.075218,0.114474,-0.709072,-0.695782,-0.204944,0.798839,0.599225,1.090482,-28.492289,21.309475,,,,,,
1480499940.17,0.156983,0.797803,2.673556,0.844072,-0.643317,0.176937,0.109169,-0.715824,-0.689695,-0.167000,0.876773,0.404630,1.090482,-28.492289,21.309475,,,,,,
1480499940.18,0.147021,0.806542,2.677739,0.753410,-0.639417,0.462388,0.101373,-0.721898,-0.684534,-0.101769,0.909932,0.314096,1.313112,-28.023909,21.909580,,,,,,
1480499940.19,0.136094,0.815568,2.685454,0.779424,-0.436880,0.639209,0.092998,-0.728115,-0.679117,-0.013393,0.897884,0.409510,1.313112,-28.023909,21.909580,,,,,,
1480499940.20,0.129123,0.825346,2.692280,0.871107,-0.073640,0.490659,0.087342,-0.734783,-0.672656,0.054550,0.914653,0.597552,1.286219,-27.675545,22.349571,,,,,,
1480499940.21,0.133725,0.833929,2.693321,0.726269,0.722578,0.047587,0.089592,-0.740577,-0.665972,0.124276,0.936012,0.768389,1.286219,-27.675545,22.349571,,,,,,
1480499940.22,0.152691,0.837178,2.686804,0.210504,1.485225,-0.494422,0.101839,-0.742757,-0.661771,0.208936,0.996892,0.883375,0.995935,-27.289577,22.833755,,,,,,
1480499940.23,0.180053,0.832501,2.674443,-0.468010,1.731845,-0.941662,0.120527,-0.739617,-0.662148,0.174242,1.070367,0.976525,0.995935,-27.289577,22.833755,,,,,,
1480499940.24,0.210340,0.821466,2.657974,-0.888426,1.678238,-1.310179,0.142219,-0.732145,-0.666136,-0.607154,1.403059,1.497297,0.604554,-27.266254,22.875299,,,,,,
1480499940.25,0.241466,0.808571,2.638704,-0.869436,1.577867,-1.510126,0.165125,-0.723301,-0.670499,-0.722543,1.431324,1.626111,0.548895,-27.455891,22.648758,,,,,,
1480499940.26,0.273111,0.797407,2.619117,-0.620418,1.693483,-1.473159,0.188422,-0.715547,-0.672673,-0.745841,1.423571,1.628285,0.548895,-27.455891,22.648758,,,,,,
1480499940.27,0.307250,0.787401,2.601518,-0.580609,2.151965,-1.344849,0.213428,-0.708521,-0.672641,-0.693134,1.463709,1.616336,0.650740,-27.816761,22.201300,,,,,,
1480499940.29,0.344200,0.774509,2.586499,-0.934531,2.529932,-1.344620,0.241193,-0.699365,-0.672841,-0.590833,1.482950,1.499470,0.650740,-27.816761,22.201300,,,,,,
1480499940.30,0.379016,0.754657,2.573424,-1.606831,2.334591,-1.535706,0.269552,-0.685039,-0.676804,-0.452597,1.463023,1.345062,0.403202,-28.127592,21.812138,,,,,,
1480499940.31,0.409058,0.727267,2.563709,-2.250837,2.180374,-1.610331,0.297113,-0.664831,-0.685364,-0.279184,1.355779,1.296479,0.403202,-28.127592,21.812138,,,,,,
1480499940.32,0.437897,0.695680,2.556786,-2.543019,2.310408,-1.695150,0.325498,-0.640908,-0.695190,-0.174939,1.214730,1.391433,0.291811,-28.921007,20.750509,,,,,,
1480499940.33,0.468369,0.660842,2.548529,-2.709009,2.372436,-2.076982,0.356394,-0.613782,-0.704454,-0.193354,1.138028,1.468827,0.291811,-28.921007,20.750509,,,,,,
1480499940.34,0.499574,0.619220,2.538351,-3.283173,2.356102,-2.639402,0.390107,-0.580400,-0.714809,-0.197159,1.118395,1.411632,0.445768,-30.007999,19.141960,,,,,,
1480499940.35,0.531299,0.565811,2.534380,-4.529762,2.941288,-2.672523,0.427694,-0.536100,-0.727788,-0.168279,0.979170,1.358647,0.445768,-30.007999,19.141960,,,,,,
1480499940.36,0.562988,0.502161,2.549785,-6.188509,3.945256,-1.786847,0.467825,-0.481320,-0.741263,-0.074652,0.657086,1.150213,1.172569,-31.363413,16.794487,,,,,,
1480499940.37,0.593703,0.428101,2.590177,-8.069748,4.683601,-0.669979,0.508948,-0.415144,-0.754074,0.068063,-0.851778,-0.096223,1.240135,-32.308121,14.890962,,,,,,
1480499940.38,0.615009,0.356474,2.647394,-8.219353,3.639302,0.540550,0.540694,-0.348972,-0.765421,0.963975,-1.795010,-0.656699,0.913798,-33.407566,12.255324,,,,,,
1480499940.39,0.620197,0.302864,2.701507,-6.229708,1.572380,1.121762,0.554743,-0.298255,-0.776726,2.446584,-2.540627,-1.698859,0.913798,-33.407566,12.255324,,,,,,
1480499940.40,0.600968,0.282082,2.737245,-2.386261,-1.716354,1.607260,0.543094,-0.278356,-0.792191,2.458234,-2.560526,-1.683395,0.913798,-33.407566,12.255324,,,,,,
1480499940.41,0.556075,0.299467,2.749537,1.727572,-4.449575,1.843433,0.504364,-0.295011,-0.811533,3.831955,-2.615786,-3.158163,-0.711051,-35.170605,5.442090,,,,,,
1480499940.42,0.503565,0.344017,2.746215,4.259320,-4.994328,1.835161,0.454277,-0.337271,-0.824549,4.775230,-2.299142,-5.456594,-0.711051,-35.170605,5.442090,,,,,,
1480499940.44,0.460796,0.399983,2.736979,5.138883,-4.029253,1.639926,0.409563,-0.389402,-0.824999,4.623610,-2.027590,-7.184370,-1.503962,-34.820168,7.237910,,,,,,
1480499940.45,0.433235,0.453827,2.726194,4.794935,-2.635466,1.238539,0.377314,-0.438408,-0.815740,3.753286,-1.734535,-7.247797,-1.503962,-34.820168,7.237910,,,,,,
1480499940.46,0.420669,0.499564,2.715518,4.094281,-1.332301,0.882245,0.358465,-0.479043,-0.801262,2.907404,-1.157035,-7.185859,-1.927885,-33.790699,11.025665,,,,,,
1480499940.47,0.418720,0.540203,2.704672,3.774290,-0.510571,0.713220,0.348694,-0.514310,-0.783516,1.987396,-0.871417,-5.548531,-1.927885,-33.790699,11.025665,,,,,,
1480499940.48,0.422728,0.579124,2.694005,3.621594,-0.054683,0.729777,0.343356,-0.547291,-0.763269,1.136045,-0.613353,-3.230216,-2.232106,-32.671497,13.952936,,,,,,
1480499940.49,0.429982,0.615522,2.686028,3.237167,0.372066,0.892385,0.340350,-0.577385,-0.742151,0.402203,-0.360878,-1.422171,-2.232106,-32.671497,13.952936,,,,,,
1480499940.50,0.439776,0.647275,2.682899,2.634673,0.867753,1.080196,0.339623,-0.603015,-0.721824,-0.016091,-0.142774,-0.195672,-2.786786,-31.491066,16.359707,,,,,,
1480499940.51,0.449606,0.673124,2.685882,1.891920,1.127349,1.284007,0.339813,-0.623432,-0.704174,0.023163,0.333881,0.987926,-3.266582,-30.955372,17.268116,,,,,,
1480499940.52,0.455576,0.691890,2.695177,1.090984,1.101602,1.401948,0.338803,-0.637994,-0.691503,0.020664,0.519509,1.298971,-3.878864,-30.515375,17.912556,,,,,,
1480499940.53,0.458623,0.706307,2.709216,0.711182,1.138662,1.517554,0.336801,-0.649029,-0.682149,0.022666,0.530544,1.289616,-3.878864,-30.515375,17.912556,,,,,,
1480499940.54,0.460858,0.721123,2.722724,0.883602,0.973451,1.441268,0.334011,-0.660228,-0.672707,-0.068172,0.706249,1.466820,-3.878864,-30.515375,17.912556,,,,,,
1480499940.55,0.462830,0.738223,2.731260,1.269532,0.620717,1.159400,0.330247,-0.672974,-0.661848,-0.122255,0.892579,1.426694,-5.917824,-29.726212,18.666149,,,,,,
1480499940.56,0.464295,0.757564,2.733959,1.594679,0.212277,0.944525,0.325327,-0.687154,-0.649602,-0.142175,1.133229,1.348195,-5.917824,-29.726212,18.666149,,,,,,
1480499940.57,0.463151,0.776497,2.737131,1.397010,0.089050,1.001636,0.318713,-0.700785,-0.638219,-0.208361,1.268396,1.111150,-6.823635,-29.024364,19.445248,,,,,,
1480499940.59,0.458591,0.789900,2.744622,0.715099,0.061122,0.990504,0.311613,-0.710283,-0.631186,-0.338896,1.355455,0.731802,-6.823635,-29.024364,19.445248,,,,,,
1480499940.60,0.450897,0.795954,2.755951,0.016759,0.020937,0.888778,0.304868,-0.714531,-0.629683,-0.482542,1.410180,0.546782,-7.467445,-28.366432,20.166214,,,,,,
1480499940.61,0.440870,0.796149,2.769805,-0.480846,-0.015442,0.809017,0.298480,-0.714667,-0.632582,-0.637912,1.330894,0.562117,-7.467445,-28.366432,20.166214,,,,,,
1480499940.62,0.430880,0.793379,2.784202,-0.654421,0.047978,0.720246,0.292971,-0.712728,-0.637328,-0.609316,1.239995,0.765014,-7.999408,-28.263737,20.106316,,,,,,
1480499940.63,0.423168,0.790718,2.796342,-0.504821,0.089222,0.587993,0.288825,-0.710859,-0.641295,-0.637519,1.132886,1.037871,-8.230732,-28.334465,19.912470,,,,,,
1480499940.64,0.417730,0.790262,2.804869,-0.176867,0.034749,0.464709,0.285465,-0.710537,-0.643153,-0.696613,1.061368,1.047786,-8.230732,-28.334465,19.912470,,,,,,
1480499940.65,0.413618,0.793324,2.808746,0.272410,-0.196310,0.305221,0.281942,-0.712689,-0.642326,-0.677923,1.014004,0.881020,-8.600558,-28.408350,19.649160,,,,,,
1480499940.66,0.409946,0.799877,2.807386,0.696777,-0.511395,0.119426,0.277715,-0.717270,-0.639060,-0.629216,0.981858,0.677131,-8.600558,-28.408350,19.649160,,,,,,
1480499940.67,0.406206,0.808926,2.802176,0.964691,-0.754314,0.001265,0.272747,-0.723546,-0.634106,-0.589733,0.974355,0.459881,-8.637188,-28.200928,19.929880,,,,,,
1480499940.68,0.401039,0.819185,2.795651,1.061468,-0.983781,-0.000612,0.266555,-0.730590,-0.628639,-0.548308,0.987029,0.320488,-8.637188,-28.200928,19.929880,,,,,,
1480499940.69,0.392831,0.829985,2.790894,1.032939,-1.116677,0.160242,0.258350,-0.737921,-0.623480,-0.536915,0.981085,0.245123,-8.288945,-27.774460,20.663155,,,,,,
1480499940.70,0.381744,0.840339,2.789967,0.867075,-1.083950,0.357578,0.248562,-0.744870,-0.619182,-0.515851,0.976544,0.268886,-8.288945,-27.774460,20.663155,,,,,,
1480499940.71,0.369086,0.848116,2.793018,0.508365,-0.925891,0.465617,0.238608,-0.750036,-0.616857,-0.441657,0.951238,0.414510,-7.919067,-27.295378,21.432314,,,,,,
1480499940.72,0.355962,0.851901,2.799153,0.094578,-0.756685,0.475985,0.229501,-0.752534,-0.617270,-0.348962,0.870881,0.579962,-7.919067,-27.295378,21.432314,,,,,,
1480499940.73,0.344064,0.851601,2.805993,-0.243543,-0.586644,0.346895,0.222217,-0.752336,-0.620170,-0.224338,0.753251,0.743384,-7.777806,-27.032356,21.814009,,,,,,
1480499940.75,0.335083,0.849136,2.811719,-0.344013,-0.382441,0.236679,0.217247,-0.750710,-0.623890,-0.198921,0.599907,1.002720,-7.742159,-27.040171,21.816998,,,,,,
1480499940.76,0.329333,0.847335,2.816818,-0.223141,-0.103529,0.256250,0.214093,-0.749519,-0.626406,-0.195768,0.598716,1.005236,-7.742159,-27.040171,21.816998,,,,,,
1480499940.77,0.327353,0.847348,2.822483,-0.082372,0.332321,0.358744,0.212849,-0.749528,-0.626820,-0.216588,0.580643,1.075612,-7.743161,-27.137808,21.695070,,,,,,
1480499940.78,0.330227,0.848511,2.829291,-0.023457,0.885454,0.455889,0.214367,-0.750297,-0.625381,-0.145657,0.582023,0.843505,-7.888694,-27.135981,21.644873,,,,,,
1480499940.79,0.337501,0.849667,2.837041,-0.076858,1.323512,0.488449,0.218623,-0.751060,-0.622987,-0.020320,0.542274,0.712022,-7.888694,-27.135981,21.644873,,,,,,
1480499940.80,0.347763,0.848866,2.844744,-0.294071,1.531003,0.388874,0.225209,-0.750531,-0.621275,-0.026906,0.541745,0.710311,-7.888694,-27.135981,21.644873,,,,,,
1480499940.81,0.357899,0.844371,2.851207,-0.618553,1.317402,0.168378,0.232675,-0.747553,-0.622114,0.046256,0.477122,0.610670,-9.074732,-27.087715,21.236725,,,,,,
1480499940.82,0.364730,0.833782,2.855453,-1.190048,0.793233,-0.217227,0.239729,-0.740478,-0.627871,0.082582,0.420303,0.492785,-9.074732,-27.087715,21.236725,,,,,,
1480499940.83,0.370092,0.812805,2.856723,-2.083485,0.585108,-0.775607,0.248657,-0.726218,-0.640919,0.098389,0.337669,0.317814,-9.635012,-27.421764,20.550102,,,,,,
1480499940.84,0.381750,0.783840,2.855108,-2.551769,1.182365,-1.153744,0.263840,-0.706004,-0.657227,0.061630,0.207774,0.123413,-9.635012,-27.421764,20.550102,,,,,,
1480499940.85,0.403445,0.754894,2.853912,-2.415725,2.191922,-1.076918,0.285940,-0.685211,-0.669869,-0.040990,-0.023666,-0.093376,-9.451736,-28.517956,19.091469,,,,,,
1480499940.86,0.430078,0.728864,2.854232,-2.173921,2.527524,-0.914439,0.311010,-0.666022,-0.678002,-0.389364,-0.920174,-0.349326,-9.497963,-29.122110,18.132421,,,,,,
1480499940.87,0.450233,0.707178,2.857161,-1.818613,1.865399,-0.586128,0.330820,-0.649691,-0.684441,-0.409174,-0.936506,-0.342887,-9.497963,-29.122110,18.132421,,,,,,
1480499940.88,0.460179,0.693784,2.860814,-0.991156,0.885429,-0.233551,0.341445,-0.639451,-0.688852,-0.339995,-1.425658,-0.558721,-9.822473,-30.058123,16.343857,,,,,,
1480499940.90,0.459201,0.694495,2.859515,0.517259,-0.558070,-0.002927,0.340570,-0.639997,-0.688778,0.142279,-1.949160,-1.201450,-9.822473,-30.058123,16.343857,,,,,,
1480499940.91,0.448224,0.711998,2.849862,2.162016,-1.906673,0.126050,0.328083,-0.653348,-0.682274,0.655788,-2.362293,-2.054222,-9.872063,-30.293339,15.872910,,,,,,
1480499940.92,0.433265,0.740817,2.834974,3.027030,-2.369992,0.231964,0.309805,-0.674891,-0.669734,2.146936,-2.052022,-3.577611,-9.624114,-29.975101,16.612139,,,,,,
1480499940.93,0.422090,0.771349,2.820356,2.948250,-1.784007,0.288184,0.293720,-0.697103,-0.654046,2.163021,-2.029810,-3.593299,-9.624114,-29.975101,16.612139,,,,,,
1480499940.94,0.420606,0.798244,2.808066,2.514334,-0.652781,0.278146,0.284989,-0.716132,-0.637132,2.093567,-1.687082,-3.603804,-9.624114,-29.975101,16.612139,,,,,,
1480499940.95,0.429963,0.821023,2.797189,2.148945,0.374087,0.222011,0.284063,-0.731844,-0.619446,1.747202,-1.420607,-2.974991,-8.852188,-28.236355,19.784853,,,,,,
1480499940.96,0.446062,0.840911,2.788157,1.844681,1.020555,0.310776,0.287662,-0.745251,-0.601541,1.207867,-1.267612,-1.816412,-8.852188,-28.236355,19.784853,,,,,,
1480499940.97,0.462179,0.857191,2.785146,1.287845,1.367474,0.566831,0.291870,-0.756007,-0.585889,0.628464,-1.068868,-0.611194,-9.229053,-27.281513,20.919775,,,,,,
1480499940.98,0.473906,0.867221,2.790829,0.470509,1.524501,0.772528,0.295245,-0.762534,-0.575649,-0.184634,-0.514260,0.531964,-9.666010,-26.904362,21.208889,,,,,,
1480499940.99,0.480906,0.870130,2.803062,-0.271287,1.525689,0.764023,0.298240,-0.764413,-0.571600,-0.187629,-0.512382,0.527914,-9.666010,-26.904362,21.208889,,,,,,
1480499941.00,0.486377,0.867719,2.817512,-0.684772,1.556086,0.630076,0.302223,-0.762856,-0.571587,-0.302040,-0.239432,0.653969,-10.784201,-26.606379,21.045071,,,,,,
1480499941.01,0.492583,0.864203,2.831743,-0.660218,1.592250,0.615076,0.307031,-0.760578,-0.572061,-0.290124,-0.030651,0.780267,-10.784201,-26.606379,21.045071,,,,,,
1480499941.02,0.498184,0.863917,2.845007,-0.309285,1.403225,0.721539,0.310334,-0.760392,-0.570523,-0.366380,0.180772,0.915768,-11.841275,-26.739893,20.294226,,,,,,
1480499941.03,0.501904,0.867026,2.855240,0.041158,0.952214,0.643249,0.311315,-0.762408,-0.567289,-0.451345,0.459673,0.908262,-11.841275,-26.739893,20.294226,,,,,,
1480499941.05,0.505050,0.872214,2.858830,0.429129,0.416601,0.353891,0.311180,-0.765755,-0.562838,-0.493843,1.012947,0.560228,-12.780644,-26.654490,19.831453,,,,,,
1480499941.06,0.507847,0.880670,2.855933,0.869754,-0.052449,0.200802,0.309594,-0.771166,-0.556287,-0.392785,1.111192,0.273420,-12.780644,-26.654490,19.831453,,,,,,
1480499941.07,0.509253,0.888908,2.850764,0.745602,-0.280113,0.069452,0.307267,-0.776384,-0.550286,-0.364335,1.145357,0.054879,-13.094952,-26.330179,20.058344,,,,,,
1480499941.08,0.509899,0.891450,2.847127,0.151713,-0.157658,-0.117652,0.306659,-0.777984,-0.548363,-0.510775,1.189162,0.024620,-13.094952,-26.330179,20.058344,,,,,,
1480499941.09,0.510326,0.887698,2.846484,-0.417744,0.042901,-0.217385,0.308317,-0.775621,-0.550775,-0.675382,1.231279,0.096399,-13.008534,-26.079540,20.438419,,,,,,
1480499941.10,0.510653,0.880238,2.849155,-0.753113,0.287251,-0.188293,0.311316,-0.770891,-0.555707,-0.688910,1.093431,0.566022,-12.949962,-26.170671,20.358976,,,,,,
1480499941.11,0.511457,0.871781,2.854083,-0.847505,0.463033,-0.110479,0.314942,-0.765476,-0.561121,-0.692536,1.088017,0.571436,-12.949962,-26.170671,20.358976,,,,,,
1480499941.12,0.512124,0.863608,2.859821,-0.821901,0.463413,-0.060497,0.318372,-0.760191,-0.566346,-0.732084,1.013091,0.904512,-12.996622,-26.543501,19.839954,,,,,,
1480499941.13,0.511676,0.857054,2.865834,-0.665343,0.346006,0.054169,0.320551,-0.755917,-0.570821,-0.662744,0.944424,0.990544,-12.996622,-26.543501,19.839954,,,,,,
1480499941.14,0.508810,0.854034,2.872291,-0.353481,0.125505,0.267803,0.320024,-0.753936,-0.573729,-0.508013,0.841232,0.883970,-13.160839,-26.875015,19.277428,,,,,,
1480499941.15,0.502066,0.855687,2.879631,0.004908,-0.195954,0.533578,0.315548,-0.755022,-0.574780,-0.366726,0.736818,0.676571,-13.160839,-26.875015,19.277428,,,,,,
1480499941.16,0.491006,0.860579,2.888154,0.185238,-0.500667,0.713550,0.307426,-0.758220,-0.574971,-0.253349,0.693508,0.456029,-13.371054,-26.886156,19.116562,,,,,,
1480499941.17,0.476360,0.866535,2.897994,0.215278,-0.718943,0.809050,0.296896,-0.762090,-0.575388,-0.149527,0.658910,0.279902,-13.371054,-26.886156,19.116562,,,,,,
1480499941.18,0.458820,0.872271,2.909556,0.138954,-0.833419,0.881650,0.284818,-0.765792,-0.576578,0.086093,0.596160,0.066644,-13.563168,-26.599184,19.380848,,,,,,
1480499941.19,0.439822,0.876658,2.922994,-0.026687,-0.791302,0.903074,0.272380,-0.768605,-0.578839,0.023839,0.662877,0.213681,-13.638880,-26.439222,19.545891,,,,,,
1480499941.21,0.422184,0.878778,2.937151,-0.223273,-0.563196,0.830572,0.261461,-0.769960,-0.582066,0.034758,0.664231,0.216908,-13.638880,-26.439222,19.545891,,,,,,
1480499941.22,0.408284,0.878294,2.951196,-0.432207,-0.191842,0.717080,0.253493,-0.769651,-0.585986,-0.053801,0.729276,0.394198,-13.829663,-26.213949,19.714531,,,,,,
1480499941.23,0.398436,0.875203,2.964263,-0.613552,0.069851,0.563921,0.248632,-0.767673,-0.590643,-0.140325,0.764362,0.558905,-13.829663,-26.213949,19.714531,,,,,,
1480499941.24,0.390990,0.870076,2.975473,-0.726544,0.101698,0.397200,0.245724,-0.764378,-0.596109,-0.252255,0.794804,0.724817,-14.152105,-26.211281,19.487946,,,,,,
1480499941.25,0.384409,0.863773,2.984786,-0.758110,0.029437,0.267971,0.243598,-0.760299,-0.602168,-0.375647,0.846465,0.843241,-14.152105,-26.211281,19.487946,,,,,,
1480499941.26,0.379270,0.857818,2.991545,-0.625112,-0.006032,0.142735,0.242172,-0.756417,-0.607606,-0.457061,0.872720,0.905855,-14.391267,-26.399771,19.053528,,,,,,
1480499941.27,0.376754,0.853890,2.994727,-0.332359,-0.014340,0.015668,0.241734,-0.753842,-0.610972,-0.482594,0.877438,0.862361,-14.391267,-26.399771,19.053528,,,,,,
1480499941.28,0.376279,0.852961,2.994563,0.006378,-0.075793,-0.056214,0.241700,-0.753231,-0.611738,-0.450349,0.882534,0.747068,-14.451324,-26.584780,18.748390,,,,,,
1480499941.29,0.375895,0.853604,2.992809,0.090985,-0.189491,-0.085614,0.241287,-0.753654,-0.611380,-0.396073,0.850593,0.642737,-14.451324,-26.584780,18.748390,,,,,,
1480499941.30,0.373078,0.851583,2.992012,-0.278785,-0.376003,-0.128991,0.240119,-0.752324,-0.613475,-0.312263,0.783498,0.552363,-14.374091,-26.599483,18.786867,,,,,,
1480499941.31,0.365968,0.842195,2.993664,-1.085357,-0.596919,-0.256318,0.238268,-0.746106,-0.621734,-0.237444,0.721525,0.471496,-14.374091,-26.599483,18.786867,,,,,,
1480499941.32,0.356370,0.821459,2.998761,-2.223987,-0.474300,-0.428673,0.237637,-0.732141,-0.638356,-0.050153,0.334023,0.468556,-14.103943,-26.853634,18.629400,,,,,,
1480499941.33,0.352521,0.788243,3.006508,-3.350697,0.438568,-0.668804,0.243444,-0.709115,-0.661733,-0.135015,0.052667,0.599218,-14.103943,-26.853634,18.629400,,,,,,
1480499941.34,0.362192,0.745787,3.014440,-4.052028,1.751352,-0.960620,0.260271,-0.678550,-0.686898,-0.151842,0.022102,0.624383,-14.103943,-26.853634,18.629400,,,,,,
1480499941.36,0.386381,0.699154,3.021481,-4.250934,2.991805,-1.164300,0.288427,-0.643570,-0.708962,-0.370809,-0.373794,0.720299,-13.717739,-28.784523,15.823032,,,,,,
1480499941.37,0.418622,0.657416,3.028473,-3.545500,3.460114,-0.985031,0.321776,-0.611074,-0.723221,-0.522322,-0.822093,0.674973,-13.717739,-28.784523,15.823032,,,,,,
1480499941.38,0.445806,0.630344,3.033145,-2.051453,2.480323,-0.678262,0.348322,-0.589423,-0.728871,-0.457621,-1.198068,0.341160,-13.939877,-30.324152,12.378173,,,,,,
1480499941.39,0.454294,0.621016,3.033009,-0.348929,0.049688,-0.291066,0.356893,-0.581861,-0.730797,-0.115530,-1.589006,-0.397468,-13.939877,-30.324152,12.378173,,,,,,
1480499941.40,0.434534,0.626121,3.025388,0.953457,-2.963960,-0.375342,0.341129,-0.586006,-0.735002,0.371472,-1.954994,-1.398390,-14.014284,-30.893152,10.784547,,,,,,
1480499941.41,0.394757,0.637421,3.010983,1.501620,-4.927171,-0.623546,0.309065,-0.595125,-0.741826,1.095446,-2.181440,-2.605205,-14.014284,-30.893152,10.784547,,,,,,
1480499941.42,0.346302,0.650330,2.994521,1.568382,-5.509773,-0.727527,0.270140,-0.605449,-0.748636,1.940858,-2.211858,-3.877722,-12.879633,-30.761555,12.447294,,,,,,
1480499941.43,0.302009,0.663025,2.978317,1.484494,-4.829515,-0.769211,0.234422,-0.615504,-0.752464,2.392486,-1.893072,-4.541939,-12.879633,-30.761555,12.447294,,,,,,
1480499941.44,0.272209,0.675119,2.962512,1.386058,-3.272004,-0.798091,0.209880,-0.624990,-0.751889,2.099598,-1.763224,-4.507754,-10.863564,-30.498821,14.795214,,,,,,
1480499941.46,0.268424,0.696333,2.936408,1.091309,0.319106,-0.471699,0.203471,-0.641408,-0.739726,0.497183,-1.185847,-1.410695,-10.002640,-30.356956,15.668303,,,,,,
1480499941.45,0.261885,0.686227,2.947816,1.245531,-1.345557,-0.726753,0.200297,-0.633623,-0.747264,0.500356,-1.193632,-1.403157,-10.002640,-30.356956,15.668303,,,,,,
1480499941.47,0.285219,0.706126,2.929888,0.981985,1.408277,-0.102839,0.214088,-0.648891,-0.730141,0.218301,-1.091831,-0.563148,-9.257209,-30.072430,16.644711,,,,,,
1480499941.48,0.305546,0.715808,2.928613,0.854155,1.918627,0.259679,0.226983,-0.656227,-0.719614,0.047248,-0.950386,0.042200,-9.257209,-30.072430,16.644711,,,,,,
1480499941.49,0.324271,0.724214,2.931941,0.605975,1.936016,0.524946,0.238651,-0.662547,-0.709984,0.005123,-0.821309,0.394340,-9.790545,-29.732117,16.948153,,,,,,
1480499941.51,0.338497,0.730525,2.938867,0.331914,1.682801,0.681145,0.247333,-0.667260,-0.702559,0.075481,-0.698859,0.498488,-9.790545,-29.732117,16.948153,,,,,,
1480499941.52,0.347438,0.734864,2.948121,0.120475,1.325117,0.757818,0.252617,-0.670486,-0.697591,0.129234,-0.548218,0.443379,-10.816208,-29.413958,16.879637,,,,,,
1480499941.53,0.351615,0.738262,2.957984,0.059567,0.892771,0.738239,0.254743,-0.673004,-0.694386,0.125033,-0.345856,0.365864,-10.816208,-29.413958,16.879637,,,,,,
1480499941.54,0.350628,0.741841,2.966973,0.124403,0.330519,0.686664,0.253228,-0.675646,-0.692371,0.053108,-0.084257,0.338581,-11.719103,-29.192366,16.660187,,,,,,
1480499941.55,0.343733,0.746652,2.975360,0.265811,-0.255781,0.702804,0.247350,-0.679186,-0.691032,-0.018666,0.201433,0.359657,-11.719103,-29.192366,16.660187,,,,,,
1480499941.56,0.332242,0.752922,2.983239,0.406693,-0.658021,0.694117,0.237999,-0.683774,-0.689790,-0.077019,0.432843,0.372529,-12.216682,-28.955257,16.716429,,,,,,
1480499941.57,0.319268,0.759600,2.989078,0.475219,-0.886830,0.520285,0.227592,-0.688632,-0.688468,-0.102271,0.615603,0.352027,-12.330891,-28.795677,16.907145,,,,,,
1480499941.58,0.307685,0.765086,2.991310,0.418831,-0.936865,0.225999,0.218455,-0.692599,-0.687448,-0.128855,0.803347,0.314538,-12.330891,-28.795677,16.907145,,,,,,
1480499941.59,0.300408,0.768166,2.990093,0.252236,-0.666750,-0.061341,0.212814,-0.694817,-0.686978,-0.350494,1.016854,0.583356,-12.273641,-28.513655,17.419033,,,,,,
1480499941.61,0.305500,0.766062,2.984355,-0.229235,0.503171,-0.211294,0.216749,-0.693303,-0.687278,-0.489073,1.075963,0.750770,-12.133850,-28.456539,17.609325,,,,,,
1480499941.60,0.299881,0.768442,2.986848,0.033089,-0.106711,-0.231912,0.212395,-0.695016,-0.686907,-0.484719,1.077676,0.750399,-12.133850,-28.456539,17.609325,,,,,,
1480499941.62,0.313215,0.761127,2.984317,-0.508144,0.751899,-0.119406,0.223096,-0.689738,-0.688832,-0.610059,1.083018,0.935277,-12.133850,-28.456539,17.609325,,,,,,
1480499941.63,0.318872,0.754417,2.986626,-0.672694,0.630335,-0.021968,0.228435,-0.684864,-0.691938,-0.635143,0.994602,1.081724,-12.113708,-28.625759,17.346970,,,,,,
1480499941.64,0.320594,0.748296,2.989975,-0.569019,0.274319,0.051688,0.230943,-0.680391,-0.695510,-0.560365,0.869874,1.123580,-12.113708,-28.625759,17.346970,,,,,,
1480499941.65,0.318223,0.745470,2.992250,-0.190720,-0.191778,0.067785,0.229894,-0.678317,-0.697879,-0.415288,0.744327,1.024768,-12.303656,-28.857023,16.822176,,,,,,
1480499941.67,0.313187,0.747644,2.991970,0.327394,-0.578426,0.029019,0.225922,-0.679913,-0.697623,-0.299454,0.658657,0.840995,-12.303656,-28.857023,16.822176,,,,,,
1480499941.68,0.307579,0.754096,2.988468,0.739812,-0.780011,-0.067072,0.220673,-0.684630,-0.694684,-0.235337,0.655089,0.611004,-12.236000,-28.860573,16.865381,,,,,,
1480499941.70,0.300646,0.774695,2.977140,1.137144,-0.595563,-0.051440,0.211630,-0.699498,-0.682580,-0.187582,0.685765,0.188195,-12.086469,-28.748426,17.162128,,,,,,
1480499941.69,0.303299,0.763488,2.983013,1.009885,-0.726346,-0.090588,0.215768,-0.691445,-0.689455,-0.191720,0.677712,0.195070,-12.086469,-28.748426,17.162128,,,,,,
1480499941.71,0.298469,0.785443,2.972552,0.994994,-0.476582,0.025088,0.207921,-0.707138,-0.675814,-0.190556,0.731140,0.107470,-11.780284,-28.379635,17.969820,,,,,,
1480499941.72,0.295473,0.792626,2.970557,0.556952,-0.397299,0.082164,0.204410,-0.712199,-0.671557,-0.232670,0.833598,0.369799,-11.780284,-28.379635,17.969820,,,,,,
1480499941.73,0.291013,0.793973,2.971383,-0.052728,-0.346582,0.083795,0.201138,-0.713144,-0.671542,-0.214367,0.834360,0.571490,-11.623486,-28.031660,18.606827,,,,,,
1480499941.74,0.286307,0.789060,2.974210,-0.625617,-0.212961,0.032700,0.198962,-0.709692,-0.675834,-0.200565,0.834783,0.759727,-11.623486,-28.031660,18.606827,,,,,,
1480499941.75,0.282755,0.779729,2.977389,-0.964563,-0.102675,-0.070582,0.198400,-0.703087,-0.682866,-0.211415,0.822853,0.970510,-11.541772,-28.092178,18.566378,,,,,,
1480499941.76,0.280666,0.768580,2.979501,-1.044900,-0.036882,-0.184186,0.199132,-0.695115,-0.690769,-0.247319,0.810929,1.158695,-11.541772,-28.092178,18.566378,,,,,,
1480499941.77,0.281293,0.757909,2.979805,-0.921777,0.125991,-0.276920,0.201612,-0.687404,-0.697731,-0.286833,0.812816,1.275001,-11.446815,-28.495268,18.002317,,,,,,
1480499941.78,0.285285,0.749229,2.978373,-0.691503,0.329733,-0.331676,0.206068,-0.681075,-0.702619,-0.322431,0.791380,1.276945,-11.446815,-28.495268,18.002317,,,,,,
1480499941.79,0.291563,0.742825,2.975897,-0.478190,0.448439,-0.329087,0.211724,-0.676371,-0.705475,-0.304147,0.763407,1.135742,-11.337303,-28.890938,17.431946,,,,,,
1480499941.80,0.297652,0.737185,2.973095,-0.460970,0.361379,-0.346191,0.217131,-0.672206,-0.707808,-0.208541,0.694545,0.736571,-11.313719,-29.028723,17.217041,,,,,,
1480499941.82,0.301959,0.729701,2.970237,-0.671694,0.173304,-0.416178,0.221668,-0.666647,-0.711650,-0.213077,0.688986,0.740412,-11.313719,-29.028723,17.217041,,,,,,
1480499941.83,0.303718,0.718946,2.968092,-1.004386,-0.007939,-0.450401,0.225050,-0.658592,-0.718059,-0.123824,0.610328,0.573604,-11.196981,-29.309732,16.812515,,,,,,
1480499941.84,0.305034,0.703841,2.965381,-1.382761,-0.035775,-0.695237,0.228957,-0.647150,-0.727169,-0.030166,0.520091,0.422543,-11.196981,-29.309732,16.812515,,,,,,
1480499941.85,0.312580,0.682477,2.957288,-1.861450,0.362648,-1.335287,0.238635,-0.630718,-0.738410,0.034589,0.422023,0.301383,-10.863277,-29.821846,16.116449,,,,,,
1480499941.86,0.332607,0.653079,2.944383,-2.446145,1.422059,-1.880042,0.259318,-0.607634,-0.750689,-0.129832,-0.211579,0.064715,-10.527695,-30.246910,15.536587,,,,,,
1480499941.88,0.403989,0.580570,2.919597,-2.879056,3.240406,-2.139547,0.328682,-0.548501,-0.768840,-0.500648,-0.645011,-0.095845,-10.527695,-30.246910,15.536587,,,,,,
1480499941.87,0.364356,0.617915,2.931380,-2.836763,2.496268,-2.085971,0.290455,-0.579337,-0.761580,-0.462422,-0.614175,-0.103105,-10.527695,-30.246910,15.536587,,,,,,
1480499941.89,0.443040,0.548273,2.912017,-2.328686,3.200204,-1.622893,0.365853,-0.521214,-0.771030,-0.700707,-1.074428,-0.313656,-9.482366,-32.067699,12.200031,,,,,,
1480499941.90,0.470882,0.527814,2.908622,-1.335502,2.093619,-0.920031,0.391932,-0.503646,-0.769889,-0.413508,-1.502793,-0.676140,-9.482366,-32.067699,12.200031,,,,,,
1480499941.91,0.479078,0.521376,2.906025,-0.123497,0.106349,-0.317983,0.399715,-0.498073,-0.769513,0.135487,-1.935978,-1.378207,-9.166773,-32.846558,10.206238,,,,,,
1480499941.92,0.466470,0.528424,2.901801,1.002776,-1.808125,0.071168,0.388394,-0.504173,-0.771336,0.820591,-2.222939,-2.258861,-9.073787,-32.939083,9.988832,,,,,,
1480499941.93,0.442214,0.544236,2.894232,1.763026,-2.828756,0.079226,0.366114,-0.517764,-0.773227,1.728124,-2.342160,-3.211590,-9.073787,-32.939083,9.988832,,,,,,
1480499941.94,0.416578,0.564058,2.882125,2.158848,-2.973333,-0.172833,0.341953,-0.534620,-0.772820,2.396008,-2.269701,-3.962517,-8.654804,-32.664944,11.188792,,,,,,
1480499941.95,0.398114,0.584207,2.867283,2.176347,-2.257247,-0.359404,0.323384,-0.551538,-0.768914,2.514843,-1.876898,-4.196280,-8.654804,-32.664944,11.188792,,,,,,
1480499941.96,0.390777,0.602729,2.853275,1.944160,-1.126950,-0.313945,0.313788,-0.566893,-0.761689,2.108179,-1.503466,-3.895232,-7.796833,-32.144310,13.154696,,,,,,
1480499941.98,0.392615,0.618391,2.843223,1.538289,-0.146939,-0.085721,0.311752,-0.579725,-0.752815,1.448380,-1.161196,-3.064507,-7.796833,-32.144310,13.154696,,,,,,
1480499941.99,0.397634,0.630878,2.838999,1.090093,0.313810,0.231379,0.312699,-0.589854,-0.744508,0.770935,-0.811254,-2.055068,-7.367926,-31.640415,14.549609,,,,,,
1480499942.00,0.400068,0.640390,2.840255,0.687569,0.267044,0.492872,0.312310,-0.597508,-0.738544,0.059424,-0.235790,0.323398,-7.457385,-31.438869,14.935801,,,,,,
1480499942.02,0.392593,0.654125,2.853217,0.321480,-0.097175,0.809082,0.303612,-0.608465,-0.733205,0.106971,-0.098978,0.596120,-7.457385,-31.438869,14.935801,,,,,,
1480499942.01,0.398027,0.647653,2.845424,0.418124,0.040193,0.655900,0.309112,-0.603317,-0.735159,0.101472,-0.104127,0.598074,-7.457385,-31.438869,14.935801,,,,,,
1480499942.03,0.384849,0.661312,2.863051,0.361925,-0.178981,0.963911,0.296276,-0.614152,-0.731462,0.119297,0.033296,0.677889,-8.117854,-31.028009,15.442035,,,,,,
1480499942.04,0.375891,0.669538,2.873936,0.437316,-0.218572,1.043776,0.287847,-0.620624,-0.729363,0.064860,0.212680,0.697640,-8.398290,-30.888662,15.570891,,,,,,
1480499942.05,0.366095,0.678337,2.884821,0.490559,-0.308755,1.025168,0.278723,-0.627499,-0.727020,-0.034384,0.406995,0.712112,-8.398290,-30.888662,15.570891,,,,,,
1480499942.06,0.356090,0.686693,2.893987,0.493371,-0.416492,0.839811,0.269598,-0.633983,-0.724833,-0.096838,0.574092,0.728861,-8.995352,-30.545462,15.910746,,,,,,
1480499942.07,0.348393,0.693804,2.899568,0.484380,-0.357156,0.523489,0.262465,-0.639466,-0.722630,-0.152739,0.690843,0.723775,-8.995352,-30.545462,15.910746,,,,,,
1480499942.08,0.345270,0.699959,2.901341,0.502796,-0.118107,0.255075,0.258870,-0.644187,-0.719729,-0.249013,0.803046,0.739520,-9.349895,-30.228647,16.306492,,,,,,
1480499942.09,0.346893,0.705124,2.900478,0.451774,0.171523,0.060890,0.258903,-0.648128,-0.716170,-0.356178,0.897624,0.768202,-9.349895,-30.228647,16.306492,,,,,,
1480499942.10,0.351798,0.707721,2.898781,0.194565,0.415546,-0.049488,0.261832,-0.650104,-0.713309,-0.498328,0.980609,0.829001,-9.470729,-30.014847,16.628517,,,,,,
1480499942.11,0.356954,0.707257,2.898817,-0.120484,0.476096,0.010220,0.265612,-0.649751,-0.712232,-0.646441,1.034288,0.917294,-9.470729,-30.014847,16.628517,,,,,,
1480499942.13,0.358356,0.704523,2.901512,-0.356793,0.214948,0.115922,0.267232,-0.647671,-0.713519,-0.733800,0.941036,0.994266,-9.606537,-29.978617,16.615965,,,,,,
1480499942.14,0.354361,0.701054,2.906537,-0.440836,-0.162544,0.259779,0.265158,-0.645023,-0.716684,-0.654440,0.848530,0.993112,-9.606537,-29.978617,16.615965,,,,,,
1480499942.15,0.345870,0.698256,2.912943,-0.378766,-0.479620,0.360890,0.259674,-0.642883,-0.720605,-0.528198,0.759002,0.967843,-9.746957,-30.075787,16.356569,,,,,,
1480499942.16,0.335074,0.696930,2.918992,-0.217649,-0.692719,0.358213,0.252159,-0.641867,-0.724170,-0.373009,0.703482,0.822330,-9.785389,-30.110497,16.269527,,,,,,
1480499942.17,0.324065,0.697335,2.922882,0.004396,-0.823860,0.240403,0.244089,-0.642177,-0.726656,-0.256418,0.665798,0.652682,-9.785389,-30.110497,16.269527,,,,,,
1480499942.18,0.314687,0.699463,2.923519,0.228135,-0.830721,0.060158,0.236840,-0.643807,-0.727612,-0.166726,0.645104,0.530057,-9.741559,-30.098198,16.318514,,,,,,
1480499942.19,0.308395,0.703082,2.920700,0.433520,-0.732639,-0.136662,0.231548,-0.646572,-0.726863,-0.141155,0.643551,0.460887,-9.741559,-30.098198,16.318514,,,,,,
1480499942.20,0.305186,0.707716,2.915248,0.552255,-0.592571,-0.266166,0.228312,-0.650100,-0.724737,-0.172938,0.671432,0.434500,-9.466006,-29.997623,16.662254,,,,,,
1480499942.21,0.304411,0.712455,2.908609,0.559790,-0.438325,-0.324216,0.226824,-0.653694,-0.721966,-0.230624,0.719108,0.460919,-9.466006,-29.997623,16.662254,,,,,,
1480499942.22,0.305039,0.716825,2.902380,0.504335,-0.281200,-0.277652,0.226418,-0.656994,-0.719092,-0.277581,0.750317,0.534171,-9.088406,-29.854889,17.122498,,,,,,
1480499942.23,0.306573,0.720928,2.898415,0.430565,-0.032129,-0.096828,0.226705,-0.660082,-0.716168,-0.300955,0.754961,0.636166,-9.088406,-29.854889,17.122498,,,,,,
1480499942.24,0.309022,0.724391,2.897999,0.261544,0.277910,0.118886,0.227762,-0.662679,-0.713429,-0.291925,0.757086,0.754597,-8.867537,-29.718060,17.472755,,,,,,
1480499942.25,0.312488,0.724580,2.900732,-0.166574,0.571319,0.194939,0.230194,-0.662821,-0.712516,-0.259613,0.725169,0.886557,-8.927917,-29.651918,17.554186,,,,,,
1480499942.26,0.318531,0.719576,2.905320,-0.658882,0.943858,0.139143,0.235532,-0.659066,-0.714253,-0.054623,0.648599,1.166782,-9.079886,-29.641653,17.493467,,,,,,
1480499942.29,0.337485,0.700691,2.913421,-0.987167,1.100762,-0.103504,0.253103,-0.644746,-0.721278,-0.049948,0.634141,1.214900,-9.079886,-29.641653,17.493467,,,,,,
1480499942.28,0.327602,0.710889,2.909875,-0.924425,1.165049,0.017147,0.243834,-0.652508,-0.717481,-0.040679,0.641903,1.211102,-9.079886,-29.641653,17.493467,,,,,,
1480499942.30,0.344700,0.691179,2.915367,-0.831589,0.659193,-0.182441,0.260361,-0.637446,-0.725172,-0.088151,0.663737,1.257643,-9.688308,-30.063717,16.413504,,,,,,
1480499942.31,0.345909,0.684170,2.915650,-0.554377,-0.061675,-0.207908,0.262747,-0.632030,-0.729042,-0.127142,0.684596,1.170617,-9.688308,-30.063717,16.413504,,,,,,
1480499942.32,0.341079,0.678958,2.914260,-0.399530,-0.665828,-0.286169,0.260320,-0.627982,-0.733397,-0.110525,0.677695,0.842452,-9.728634,-30.362000,15.830226,,,,,,
1480499942.33,0.333725,0.672525,2.910655,-0.537171,-0.942775,-0.514892,0.256238,-0.622963,-0.739094,-0.021298,0.660072,0.466511,-9.728634,-30.362000,15.830226,,,,,,
1480499942.34,0.329517,0.660694,2.904613,-1.054855,-0.613899,-0.872519,0.255493,-0.613665,-0.747087,0.060562,0.605441,0.094377,-9.257229,-30.586218,15.680574,,,,,,
1480499942.35,0.334955,0.639942,2.897700,-1.893046,0.413781,-1.192055,0.263682,-0.597149,-0.757552,0.083318,0.447643,-0.185517,-9.257229,-30.586218,15.680574,,,,,,
1480499942.36,0.352750,0.607615,2.892360,-2.998541,1.687902,-1.466429,0.283643,-0.570911,-0.770459,-0.032544,0.152179,-0.302096,-8.525423,-31.186565,14.893243,,,,,,
1480499942.37,0.380813,0.564484,2.891109,-3.929595,2.828212,-1.524463,0.314015,-0.534980,-0.784341,-0.272023,-0.202554,-0.278235,-8.525423,-31.186565,14.893243,,,,,,
1480499942.38,0.414380,0.519908,2.896623,-3.935334,3.539885,-1.045821,0.349422,-0.496800,-0.794414,-0.472347,-0.581020,-0.193715,-8.096733,-32.386375,12.355526,,,,,,
1480499942.39,0.445548,0.489064,2.906982,-2.549619,3.207125,-0.224013,0.380433,-0.469800,-0.796592,-0.420869,-0.955249,-0.187219,-8.093836,-32.984982,10.657118,,,,,,
1480499942.40,0.462340,0.479914,2.914519,-0.549096,1.351843,0.272151,0.395656,-0.461703,-0.793906,0.260838,-1.781415,-0.937616,-8.301928,-33.340454,9.305142,,,,,,
1480499942.42,0.453798,0.491479,2.910061,1.369283,-2.102241,0.088998,0.386493,-0.471931,-0.792404,1.758572,-2.225487,-3.177139,-8.301928,-33.340454,9.305142,,,,,,
1480499942.43,0.426078,0.508494,2.898868,1.954832,-3.338229,-0.224108,0.361011,-0.486862,-0.795384,2.353009,-1.837021,-5.115627,-8.508451,-33.301834,9.256750,,,,,,
1480499942.44,0.395216,0.528324,2.884069,2.230495,-3.566755,-0.393933,0.332513,-0.504087,-0.797077,1.771796,-1.550250,-4.626095,-8.508451,-33.301834,9.256750,,,,,,
1480499942.45,0.369249,0.549044,2.868871,2.237655,-2.964180,-0.396126,0.307869,-0.521872,-0.795529,1.049247,-1.375696,-3.487842,-7.595094,-32.905704,11.252670,,,,,,
1480499942.46,0.351974,0.569214,2.857254,2.023979,-1.914683,-0.102358,0.290393,-0.538970,-0.790685,1.066724,-1.358597,-3.492686,-7.595094,-32.905704,11.252670,,,,,,
1480499942.47,0.342234,0.587575,2.853000,1.615109,-0.877062,0.393124,0.279310,-0.554344,-0.784021,0.585085,-1.216331,-2.343817,-6.687441,-32.383953,13.177679,,,,,,
1480499942.48,0.337017,0.602507,2.856625,1.092116,-0.137431,0.830920,0.272448,-0.566709,-0.777568,0.338026,-1.102663,-1.328068,-6.687441,-32.383953,13.177679,,,,,,
1480499942.49,0.333180,0.613820,2.866188,0.657930,0.217055,1.096484,0.267348,-0.575995,-0.772499,0.202531,-0.973764,-0.505150,-6.822658,-31.878416,14.293751,,,,,,
1480499942.51,0.328319,0.622891,2.878923,0.458304,0.224165,1.215503,0.261894,-0.583385,-0.768813,0.203590,-0.863636,0.078475,-6.822658,-31.878416,14.293751,,,,,,
1480499942.52,0.322364,0.632267,2.891761,0.558993,0.117843,1.182279,0.255567,-0.590975,-0.765136,0.093310,-0.436704,0.640152,-7.639983,-31.512743,14.685745,,,,,,
1480499942.53,0.316217,0.643560,2.902241,0.829815,-0.027043,1.036655,0.248767,-0.600047,-0.760301,-0.040073,-0.052937,0.663500,-7.639983,-31.512743,14.685745,,,,,,
1480499942.54,0.310566,0.656866,2.909211,1.078897,-0.167499,0.819431,0.242006,-0.610638,-0.754025,-0.167131,0.344906,0.588727,-8.428584,-31.113573,15.099598,,,,,,
1480499942.55,0.305798,0.670981,2.912355,1.214193,-0.297520,0.550550,0.235789,-0.621755,-0.746876,-0.270503,0.672170,0.494740,-8.428584,-31.113573,15.099598,,,,,,
1480499942.56,0.302848,0.684748,2.911604,1.245432,-0.310557,0.262181,0.231010,-0.632478,-0.739328,-0.349693,0.961366,0.462000,-8.857206,-30.608875,15.866316,,,,,,
1480499942.57,0.303745,0.697722,2.907214,1.258125,-0.119394,-0.002041,0.229200,-0.642474,-0.731229,-0.406965,1.176882,0.532040,-8.910929,-30.363110,16.302464,,,,,,
1480499942.58,0.309370,0.709937,2.900023,1.226902,0.162139,-0.180775,0.230902,-0.651786,-0.722398,-0.474844,1.285957,0.678636,-8.910929,-30.363110,16.302464,,,,,,
1480499942.59,0.318011,0.719721,2.892877,0.931183,0.439242,-0.185922,0.235131,-0.659175,-0.714284,-0.552468,1.325389,0.865728,-8.869275,-29.924841,17.115290,,,,,,
1480499942.60,0.326525,0.724543,2.889415,0.343828,0.611116,-0.051948,0.240181,-0.662794,-0.709238,-0.595054,1.297269,1.037546,-8.869275,-29.924841,17.115290,,,,,,
1480499942.61,0.331761,0.722593,2.890380,-0.375136,0.503891,0.014722,0.244312,-0.661332,-0.709191,-0.592578,1.204362,1.148339,-8.955359,-29.668337,17.512413,,,,,,
1480499942.62,0.332451,0.714660,2.894556,-0.912429,0.262694,0.042930,0.246506,-0.655360,-0.713959,-0.531097,1.084148,1.223801,-8.955359,-29.668337,17.512413,,,,,,
1480499942.63,0.329629,0.703918,2.900428,-1.114968,0.037769,0.073746,0.246754,-0.647210,-0.721271,-0.445042,0.961358,1.299366,-9.130306,-29.847744,17.112658,,,,,,
1480499942.64,0.325039,0.693622,2.905911,-0.987572,-0.137532,0.050625,0.245556,-0.639327,-0.728672,-0.386151,0.859175,1.317128,-9.130306,-29.847744,17.112658,,,,,,
1480499942.65,0.321566,0.686260,2.908281,-0.596084,-0.192410,-0.101962,0.244505,-0.633648,-0.733967,-0.314482,0.796642,1.045597,-9.171332,-30.215757,16.431311,,,,,,
1480499942.68,0.320877,0.683049,2.899379,0.239825,-0.394844,-0.527366,0.244639,-0.631161,-0.736062,-0.234309,0.778134,0.578469,-9.120889,-30.344757,16.220314,,,,,,
1480499942.67,0.320427,0.682995,2.906173,-0.127276,-0.254695,-0.291077,0.244319,-0.631119,-0.736205,-0.233989,0.778092,0.578612,-9.120889,-30.344757,16.220314,,,,,,
1480499942.69,0.322927,0.684783,2.888954,0.430147,-0.415277,-0.699961,0.245800,-0.632505,-0.734520,-0.262280,0.806074,0.332558,-8.788700,-30.426527,16.250496,,,,,,
1480499942.70,0.326435,0.687317,2.877346,0.502664,-0.341436,-0.713457,0.247861,-0.634466,-0.732133,-0.264340,0.808034,0.330170,-8.788700,-30.426527,16.250496,,,,,,
1480499942.71,0.330064,0.689704,2.867074,0.414973,-0.248007,-0.591708,0.250025,-0.636309,-0.729794,-0.278254,0.801699,0.346416,-8.200307,-30.396769,16.609776,,,,,,
1480499942.72,0.332224,0.690516,2.860323,0.156854,-0.186568,-0.378276,0.251432,-0.636935,-0.728763,-0.283933,0.774920,0.474949,-8.200307,-30.396769,16.609776,,,,,,
1480499942.73,0.331945,0.688592,2.858411,-0.226960,-0.120733,-0.125429,0.251628,-0.635451,-0.729990,-0.243159,0.687987,0.662852,-7.769678,-30.365982,16.871056,,,,,,
1480499942.74,0.329952,0.683652,2.860926,-0.575974,-0.001923,0.055919,0.251186,-0.631629,-0.733451,-0.147716,0.574759,0.814140,-7.769678,-30.365982,16.871056,,,,,,
1480499942.75,0.328450,0.676769,2.865154,-0.736603,0.146653,0.082055,0.251480,-0.626278,-0.737925,-0.078293,0.494884,0.948664,-7.683534,-30.491259,16.683516,,,,,,
1480499942.76,0.329121,0.669438,2.869176,-0.733567,0.354657,0.046155,0.253453,-0.620546,-0.742081,-0.040425,0.432191,1.067658,-7.683534,-30.491259,16.683516,,,,,,
1480499942.77,0.332961,0.663007,2.872451,-0.612091,0.604853,0.032563,0.257599,-0.615490,-0.744859,-0.028946,0.408474,1.129060,-7.800257,-30.734907,16.174515,,,,,,
1480499942.78,0.338579,0.657973,2.875039,-0.478762,0.675892,0.019717,0.262806,-0.611515,-0.746313,-0.080631,0.427219,1.114508,-7.800257,-30.734907,16.174515,,,,,,
1480499942.79,0.344169,0.653589,2.876783,-0.415508,0.602543,-0.029077,0.267876,-0.608040,-0.747349,-0.161461,0.527458,0.632511,-8.027197,-30.926805,15.690447,,,,,,
1480499942.80,0.349401,0.650388,2.877587,-0.244439,0.507910,-0.039187,0.272447,-0.605496,-0.747762,-0.166032,0.524914,0.632924,-8.027197,-30.926805,15.690447,,,,,,
1480499942.82,0.353028,0.650928,2.877900,0.142672,0.295450,0.073181,0.275044,-0.605925,-0.746462,-0.129597,0.516570,0.447893,-8.027197,-30.926805,15.690447,,,,,,
1480499942.83,0.354224,0.655651,2.878069,0.486413,0.072873,0.192056,0.274941,-0.609675,-0.743440,-0.106835,0.513957,0.288789,-8.270488,-31.043600,15.329296,,,,,,
1480499942.84,0.354694,0.662219,2.878832,0.550822,0.119224,0.286587,0.273894,-0.614868,-0.739540,-0.070357,0.494232,0.123375,-8.270488,-31.043600,15.329296,,,,,,
1480499942.85,0.357469,0.667014,2.880258,0.307257,0.438781,0.224248,0.274910,-0.618643,-0.736006,0.005775,0.409750,-0.110658,-8.447569,-30.845123,15.630431,,,,,,
1480499942.86,0.366375,0.668622,2.881309,0.069586,1.065567,0.099699,0.281097,-0.619905,-0.732599,0.042420,0.240968,-0.302679,-8.447569,-30.845123,15.630431,,,,,,
1480499942.87,0.383059,0.669272,2.880823,0.082174,1.648915,-0.070952,0.293130,-0.620415,-0.727434,-0.004250,-0.012626,-0.361327,-8.780058,-30.726919,15.679935,,,,,,
1480499942.88,0.403796,0.667735,2.875995,-0.053846,1.609681,-0.491374,0.308524,-0.619209,-0.722075,-0.109489,-0.401817,-0.359819,-8.780058,-30.726919,15.679935,,,,,,
1480499942.89,0.421285,0.662229,2.869556,-0.346180,1.121619,-0.645645,0.322494,-0.614876,-0.719670,-0.192596,-0.831184,-0.423900,-9.181336,-30.753052,15.396306,,,,,,
1480499942.90,0.430412,0.656566,2.866026,-0.350600,0.499033,-0.369378,0.330497,-0.610400,-0.719850,-0.090720,-1.311475,-0.758208,-9.181336,-30.753052,15.396306,,,,,,
1480499942.91,0.431581,0.655572,2.865508,0.063758,-0.055875,0.024113,0.331592,-0.609613,-0.720013,-0.001590,-1.834936,-1.380069,-9.131126,-30.967077,14.991863,,,,,,
1480499942.92,0.427351,0.662868,2.864623,0.871083,-0.581952,0.276003,0.326691,-0.615380,-0.717342,0.402618,-2.557349,-2.507374,-9.119503,-30.985216,14.961432,,,,,,
1480499942.93,0.419556,0.679610,2.859652,1.798967,-1.168867,0.297824,0.316848,-0.628490,-0.710358,1.031800,-2.598851,-2.970703,-9.121768,-30.858810,15.219085,,,,,,
1480499942.94,0.409866,0.702860,2.847581,2.501841,-1.779343,-0.017590,0.304044,-0.646402,-0.699801,1.341388,-2.064261,-3.320081,-9.121768,-30.858810,15.219085,,,,,,
1480499942.95,0.400667,0.729106,2.826293,2.934994,-2.277561,-0.550582,0.290875,-0.666203,-0.686706,1.354557,-2.044460,-3.333176,-9.121768,-30.858810,15.219085,,,,,,
1480499942.97,0.395074,0.755295,2.796804,3.054492,-2.379308,-1.030122,0.280217,-0.685503,-0.671985,0.695277,-1.306623,-2.595807,-8.264656,-29.661879,17.859501,,,,,,
1480499942.98,0.394650,0.779742,2.765056,2.863096,-1.975370,-1.062831,0.273406,-0.703096,-0.656434,0.702089,-1.289030,-2.611358,-8.264656,-29.661879,17.859501,,,,,,
1480499942.99,0.396446,0.801316,2.740379,2.334024,-1.287171,-0.576551,0.268663,-0.718273,-0.641798,0.300413,-0.932942,-1.871737,-6.726358,-28.609428,20.083576,,,,,,
1480499943.00,0.396596,0.818756,2.729393,1.582489,-0.550171,0.174393,0.263880,-0.730297,-0.630106,0.049322,-0.657246,-1.070043,-6.726358,-28.609428,20.083576,,,,,,
1480499943.01,0.391835,0.831520,2.734291,0.785627,0.018887,0.925302,0.257296,-0.738956,-0.622690,0.079465,-0.469662,-0.301505,-6.012055,-27.711527,21.517895,,,,,,
1480499943.02,0.380810,0.839263,2.752927,0.051719,0.321982,1.476547,0.248282,-0.744151,-0.620158,0.357248,-0.395284,0.307826,-6.012055,-27.711527,21.517895,,,,,,
1480499943.03,0.365400,0.842414,2.780329,-0.444079,0.519081,1.746894,0.237857,-0.746252,-0.621717,0.579068,-0.374704,0.730390,-6.664374,-27.288099,21.864107,,,,,,
1480499943.04,0.350738,0.843966,2.809930,-0.492802,0.758756,1.773312,0.228318,-0.747284,-0.624049,0.562515,-0.053451,1.034038,-7.268854,-27.242771,21.727598,,,,,,
1480499943.05,0.339750,0.847570,2.837602,-0.159216,0.945879,1.699825,0.220548,-0.749675,-0.623976,0.570285,-0.051061,1.033965,-7.268854,-27.242771,21.727598,,,,,,
1480499943.06,0.333994,0.855161,2.858883,0.367207,0.945165,1.374314,0.215081,-0.754676,-0.619842,0.183158,0.553993,0.893630,-8.657562,-27.123087,21.365349,,,,,,
1480499943.07,0.333031,0.865810,2.871458,0.782608,0.737311,0.950580,0.211844,-0.761620,-0.612418,-0.153876,1.094110,0.476325,-9.301983,-26.927721,21.341610,,,,,,
1480499943.08,0.333861,0.877560,2.876737,0.963957,0.351941,0.556222,0.209406,-0.769182,-0.603745,-0.151437,1.101671,0.467652,-9.301983,-26.927721,21.341610,,,,,,
1480499943.09,0.335448,0.888088,2.876049,0.917111,0.035402,0.209888,0.207686,-0.775867,-0.595732,-0.310241,1.312839,0.325133,-9.301983,-26.927721,21.341610,,,,,,
1480499943.10,0.337576,0.896057,2.873157,0.694381,-0.009458,0.060638,0.206899,-0.780870,-0.589436,-0.495962,1.444459,0.303838,-10.181528,-26.126297,21.928211,,,,,,
1480499943.11,0.339541,0.900245,2.871624,0.282610,0.107152,0.047671,0.206966,-0.783479,-0.585940,-0.593822,1.488298,0.411807,-10.181528,-26.126297,21.928211,,,,,,
1480499943.13,0.339822,0.898798,2.873922,-0.336748,0.213972,0.093000,0.207508,-0.782579,-0.586950,-0.643589,1.459047,0.607259,-10.232367,-25.838274,22.243553,,,,,,
1480499943.14,0.337062,0.890861,2.880634,-0.989795,0.229500,0.131325,0.207935,-0.777613,-0.593364,-0.635792,1.378215,0.848658,-10.232367,-25.838274,22.243553,,,,,,
1480499943.15,0.331098,0.877451,2.890227,-1.480709,0.092860,0.118427,0.207764,-0.769112,-0.604401,-0.560059,1.257012,1.030853,-10.389969,-26.052343,21.918425,,,,,,
1480499943.16,0.322835,0.860628,2.900324,-1.733634,-0.094562,0.050030,0.206839,-0.758252,-0.618281,-0.480505,1.161816,1.146907,-10.456907,-26.356743,21.519030,,,,,,
1480499943.17,0.314364,0.843083,2.908639,-1.690158,-0.239950,-0.058743,0.205677,-0.746698,-0.632566,-0.407825,1.095895,1.184934,-10.456907,-26.356743,21.519030,,,,,,
1480499943.18,0.307297,0.827456,2.913570,-1.401376,-0.337968,-0.188332,0.204706,-0.736212,-0.645048,-0.367960,1.052848,1.125639,-10.411590,-27.117846,20.574610,,,,,,
1480499943.19,0.302575,0.815023,2.914109,-1.022935,-0.430093,-0.363090,0.204369,-0.727741,-0.654695,-0.320946,1.039997,0.956545,-10.411590,-27.117846,20.574610,,,,,,
1480499943.20,0.299729,0.805717,2.910110,-0.671139,-0.573974,-0.547765,0.204496,-0.721328,-0.661716,-0.279493,1.013823,0.536624,-10.117590,-27.732828,19.890150,,,,,,
1480499943.21,0.298416,0.798829,2.902498,-0.410942,-0.648475,-0.700074,0.205083,-0.716540,-0.666717,-0.263875,0.954302,0.251022,-9.853710,-27.946497,19.722855,,,,,,
1480499943.22,0.298410,0.793251,2.892032,-0.269982,-0.718524,-0.841733,0.206251,-0.712638,-0.670528,-0.265043,0.950401,0.254833,-9.853710,-27.946497,19.722855,,,,,,
1480499943.23,0.298930,0.787903,2.880229,-0.250703,-0.736261,-0.895530,0.207719,-0.708876,-0.674053,-0.270189,0.931868,0.235592,-9.853710,-27.946497,19.722855,,,,,,
1480499943.24,0.299255,0.782010,2.869169,-0.338594,-0.682352,-0.842690,0.209166,-0.704707,-0.677966,-0.257124,0.877467,0.302737,-8.707305,-28.394196,19.622581,,,,,,
1480499943.25,0.299182,0.774968,2.860399,-0.504929,-0.546899,-0.717088,0.210574,-0.699693,-0.682707,-0.260089,0.802034,0.431791,-8.298143,-28.537743,19.591614,,,,,,
1480499943.26,0.298398,0.766233,2.854924,-0.729000,-0.387040,-0.545770,0.211828,-0.693426,-0.688686,-0.242010,0.750143,0.566082,-8.298143,-28.537743,19.591614,,,,,,
1480499943.28,0.297008,0.755732,2.852827,-0.951688,-0.229568,-0.387593,0.212989,-0.685821,-0.695906,-0.192771,0.658966,0.702818,-7.674755,-28.887661,19.331181,,,,,,
1480499943.29,0.295514,0.743586,2.852750,-1.118417,-0.120481,-0.325069,0.214360,-0.676932,-0.704140,-0.146352,0.568243,0.817971,-7.674755,-28.887661,19.331181,,,,,,
1480499943.30,0.294495,0.730994,2.853353,-1.128225,-0.039292,-0.297204,0.216100,-0.667610,-0.712459,-0.120091,0.514412,0.892818,-7.354418,-29.352350,18.746876,,,,,,
1480499943.31,0.294325,0.719677,2.853443,-0.966048,-0.002542,-0.303952,0.218156,-0.659142,-0.719680,-0.088777,0.460015,0.924514,-7.354418,-29.352350,18.746876,,,,,,
1480499943.32,0.294793,0.710693,2.852257,-0.717164,-0.050764,-0.332077,0.220205,-0.652359,-0.725216,-0.071736,0.439270,0.893352,-7.150007,-29.823086,18.070816,,,,,,
1480499943.33,0.294670,0.703789,2.849517,-0.518729,-0.225188,-0.392958,0.221418,-0.647111,-0.729535,-0.039411,0.460420,0.637860,-7.150007,-29.823086,18.070816,,,,,,
1480499943.34,0.292978,0.697501,2.845448,-0.479459,-0.466232,-0.470695,0.221354,-0.642304,-0.733790,-0.019618,0.445145,0.447459,-6.886834,-30.131607,17.656475,,,,,,
1480499943.35,0.289118,0.689351,2.840253,-0.698671,-0.725021,-0.616331,0.220005,-0.636036,-0.739632,0.000500,0.405446,0.270485,-6.886834,-30.131607,17.656475,,,,,,
1480499943.36,0.285815,0.675503,2.833741,-1.271505,-0.639443,-0.894103,0.220024,-0.625290,-0.748734,0.001915,0.284119,0.144531,-6.353672,-30.410561,17.375904,,,,,,
1480499943.37,0.288333,0.654126,2.826888,-1.934723,0.045153,-1.082209,0.225658,-0.608466,-0.760820,-0.050381,0.073126,0.073870,-6.353672,-30.410561,17.375904,,,,,,
1480499943.38,0.300464,0.627017,2.822027,-2.429532,1.158893,-1.059177,0.239666,-0.586731,-0.773503,-0.155148,-0.221038,0.024494,-5.583064,-31.051590,16.483980,,,,,,
1480499943.39,0.321225,0.598451,2.821914,-2.531290,2.146521,-0.720319,0.260859,-0.563363,-0.783948,-0.301066,-0.540000,-0.022616,-5.368557,-31.513863,15.657218,,,,,,
1480499943.40,0.343626,0.574678,2.827154,-2.101522,2.365358,-0.209076,0.282785,-0.543564,-0.790297,-0.302988,-0.872375,-0.171815,-5.368557,-31.513863,15.657218,,,,,,
1480499943.41,0.359882,0.559181,2.835595,-1.408746,1.735173,0.216117,0.298526,-0.530492,-0.793386,0.012433,-1.290782,-0.604136,-5.645570,-32.333721,13.775022,,,,,,
1480499943.43,0.363693,0.552442,2.843296,-0.597463,0.349552,0.368994,0.302812,-0.524767,-0.795565,0.459960,-1.793882,-1.326337,-5.645570,-32.333721,13.775022,,,,,,
1480499943.44,0.352037,0.554110,2.846656,0.268942,-1.336856,0.268865,0.293216,-0.526187,-0.798218,0.986752,-2.132307,-2.283828,-6.192167,-32.643215,12.773832,,,,,,
1480499943.45,0.328617,0.562695,2.845053,0.954334,-2.521199,0.104905,0.272975,-0.533467,-0.800561,1.463505,-2.259593,-3.209510,-6.192167,-32.643215,12.773832,,,,,,
1480499943.46,0.300574,0.575709,2.839627,1.374999,-2.958257,-0.074672,0.248344,-0.544429,-0.801200,1.654580,-2.241887,-3.813683,-5.906354,-32.494625,13.278090,,,,,,
1480499943.47,0.274832,0.590657,2.832034,1.532015,-2.693367,-0.196404,0.225406,-0.556907,-0.799404,0.813321,-1.578698,-3.135288,-5.475124,-32.309021,13.901203,,,,,,
1480499943.48,0.256490,0.605867,2.823669,1.540721,-1.948587,-0.266019,0.208533,-0.569475,-0.795118,0.830194,-1.566130,-3.139575,-5.475124,-32.309021,13.901203,,,,,,
1480499943.49,0.247691,0.621152,2.814911,1.558936,-1.081716,-0.297658,0.199371,-0.581972,-0.788391,0.453400,-1.433287,-2.332520,-4.560871,-31.855997,15.214706,,,,,,
1480499943.50,0.246799,0.637303,2.806136,1.653181,-0.418211,-0.261912,0.196346,-0.595030,-0.779351,0.198445,-1.257524,-1.560188,-4.560871,-31.855997,15.214706,,,,,,
1480499943.51,0.250873,0.654607,2.797772,1.738537,0.002552,-0.187421,0.196933,-0.608848,-0.768454,0.031323,-1.062554,-0.943887,-4.057574,-31.344749,16.374861,,,,,,
1480499943.52,0.257861,0.672270,2.790474,1.718190,0.302447,-0.077052,0.199525,-0.622764,-0.756542,-0.065598,-0.831948,-0.523549,-4.057574,-31.344749,16.374861,,,,,,
1480499943.53,0.266590,0.688931,2.784728,1.570930,0.531361,0.022184,0.203359,-0.635713,-0.744658,-0.072438,-0.360641,-0.131411,-3.980953,-30.731627,17.516066,,,,,,
1480499943.54,0.276300,0.704199,2.780589,1.423043,0.696919,0.129327,0.207907,-0.647424,-0.733224,-0.058356,-0.116233,0.040978,-3.980953,-30.731627,17.516066,,,,,,
1480499943.55,0.285281,0.719200,2.778878,1.373719,0.739513,0.323049,0.211727,-0.658783,-0.721925,-0.080532,0.108185,0.238649,-4.232024,-30.136898,18.464851,,,,,,
1480499943.56,0.292120,0.734737,2.779729,1.379048,0.662073,0.515237,0.213686,-0.670392,-0.710572,-0.113542,0.353162,0.423661,-4.466167,-29.848433,18.873735,,,,,,
1480499943.57,0.295588,0.750723,2.782275,1.373350,0.412268,0.622202,0.212999,-0.682167,-0.699485,-0.090654,0.596520,0.525809,-4.466167,-29.848433,18.873735,,,,,,
1480499943.59,0.294235,0.766050,2.785860,1.266008,-0.013453,0.654414,0.208995,-0.693294,-0.689684,-0.035839,0.776836,0.554263,-5.046789,-29.225584,19.684729,,,,,,
1480499943.60,0.287536,0.779063,2.789830,1.019867,-0.478129,0.578368,0.201795,-0.702613,-0.682359,-0.019483,0.924354,0.592225,-5.046789,-29.225584,19.684729,,,,,,
1480499943.61,0.278105,0.788338,2.792969,0.687865,-0.708533,0.386839,0.193554,-0.709182,-0.677936,-0.059719,1.063430,0.671726,-5.377014,-28.642736,20.439537,,,,,,
1480499943.62,0.271097,0.793460,2.793468,0.388831,-0.560885,0.074656,0.187822,-0.712785,-0.675767,-0.162584,1.164979,0.806214,-5.377014,-28.642736,20.439537,,,,,,
1480499943.63,0.271173,0.795924,2.790244,0.245736,-0.072880,-0.190292,0.187402,-0.714510,-0.674059,-0.281549,1.222628,0.996187,-5.274014,-28.337109,20.887470,,,,,,
1480499943.64,0.277482,0.796319,2.787166,0.018193,0.529087,-0.165131,0.191574,-0.714787,-0.672591,-0.438843,1.230351,1.219833,-5.274014,-28.337109,20.887470,,,,,,
1480499943.65,0.286858,0.793108,2.787158,-0.391982,0.970992,-0.055074,0.198521,-0.712537,-0.672964,-0.605671,1.184934,1.399267,-5.215167,-28.272675,20.989315,,,,,,
1480499943.66,0.296023,0.786548,2.790431,-0.727848,1.079141,0.055712,0.206039,-0.707919,-0.675573,-0.600311,1.098865,1.440343,-5.215167,-28.272675,20.989315,,,,,,
1480499943.67,0.302355,0.777537,2.796120,-0.972327,0.914680,0.125700,0.212203,-0.701526,-0.680317,-0.471313,0.964374,1.394092,-5.632996,-28.484093,20.591726,,,,,,
1480499943.68,0.305178,0.766840,2.802985,-1.120755,0.635443,0.136293,0.216365,-0.693863,-0.686833,-0.386989,0.889511,1.268163,-5.878508,-28.677328,20.252098,,,,,,
1480499943.69,0.305340,0.755602,2.809068,-1.113073,0.337802,0.052330,0.218807,-0.685727,-0.694192,-0.327190,0.865247,1.052544,-5.878508,-28.677328,20.252098,,,,,,
1480499943.70,0.304541,0.745356,2.812655,-0.930570,0.098538,-0.091371,0.220347,-0.678234,-0.701032,-0.317973,0.808223,0.848844,-6.183898,-29.134655,19.494223,,,,,,
1480499943.71,0.303837,0.737975,2.813338,-0.573368,-0.052347,-0.177951,0.221346,-0.672791,-0.705944,-0.326525,0.776292,0.679470,-6.183898,-29.134655,19.494223,,,,,,
1480499943.72,0.303554,0.734906,2.811926,-0.133383,-0.133934,-0.171634,0.221762,-0.670518,-0.707974,-0.347891,0.761231,0.537595,-6.143444,-29.490244,18.965153,,,,,,
1480499943.74,0.303436,0.735754,2.809279,0.199450,-0.186999,-0.147881,0.221508,-0.671147,-0.707458,-0.348980,0.726856,0.417495,-6.143444,-29.490244,18.965153,,,,,,
1480499943.75,0.303329,0.738470,2.805810,0.339113,-0.246173,-0.156902,0.220887,-0.673158,-0.705739,-0.282685,0.695237,0.317555,-5.979854,-29.534798,18.948101,,,,,,
1480499943.76,0.302220,0.741368,2.802183,0.321743,-0.361156,-0.156615,0.219523,-0.675297,-0.704119,-0.206553,0.630970,0.263964,-5.979854,-29.534798,18.948101,,,,,,
1480499943.77,0.299486,0.743441,2.799127,0.211153,-0.476125,-0.136305,0.217184,-0.676825,-0.703377,-0.178548,0.566183,0.307152,-5.767294,-29.422384,19.187366,,,,,,
1480499943.78,0.295027,0.743515,2.797429,-0.026821,-0.526971,-0.098776,0.214031,-0.676879,-0.704291,-0.178814,0.564025,0.445746,-5.767294,-29.422384,19.187366,,,,,,
1480499943.79,0.290274,0.740682,2.797703,-0.332885,-0.375458,-0.043785,0.211229,-0.674791,-0.707134,-0.178651,0.565386,0.581936,-5.486993,-29.378288,19.336557,,,,,,
1480499943.80,0.287065,0.735374,2.800285,-0.586708,-0.045110,0.057693,0.209970,-0.670865,-0.711234,-0.148431,0.562665,0.716055,-5.380430,-29.435173,19.279911,,,,,,
1480499943.81,0.286749,0.728355,2.805337,-0.769920,0.391365,0.181201,0.211072,-0.665643,-0.715799,-0.108044,0.575494,0.953134,-5.380430,-29.435173,19.279911,,,,,,
1480499943.82,0.288839,0.720006,2.812281,-0.922781,0.691917,0.265317,0.214143,-0.659389,-0.720659,-0.070756,0.568004,1.018999,-5.467690,-29.680931,18.874323,,,,,,
1480499943.83,0.292048,0.711097,2.820533,-0.969471,0.821685,0.336030,0.218137,-0.652665,-0.725565,-0.023893,0.553575,0.996607,-5.467690,-29.680931,18.874323,,,,,,
1480499943.84,0.294518,0.702446,2.829284,-0.941394,0.727636,0.361956,0.221559,-0.646086,-0.730400,0.022276,0.539473,0.884910,-5.931494,-30.013622,18.195965,,,,,,
1480499943.85,0.294835,0.694831,2.837254,-0.803762,0.416181,0.329535,0.223214,-0.640256,-0.735016,0.074622,0.545910,0.711273,-5.931494,-30.013622,18.195965,,,,,,
1480499943.86,0.291376,0.688953,2.842730,-0.590269,-0.141885,0.160292,0.221748,-0.635729,-0.739376,0.117714,0.576266,0.498729,-6.400805,-30.311409,17.531160,,,,,,
1480499943.87,0.285336,0.682686,2.843497,-0.597637,-0.645621,-0.212974,0.218395,-0.630879,-0.744510,0.146183,0.580327,0.283282,-6.400805,-30.311409,17.531160,,,,,,
1480499943.89,0.278368,0.672935,2.840323,-0.905036,-0.845976,-0.556966,0.214882,-0.623284,-0.751893,0.130775,0.530968,0.077165,-6.339677,-30.529953,17.170429,,,,,,
1480499943.90,0.277423,0.657673,2.834642,-1.375897,-0.187705,-0.860214,0.216752,-0.611277,-0.761156,0.035263,0.421351,-0.116255,-6.339677,-30.529953,17.170429,,,,,,
1480499943.91,0.289128,0.638174,2.829078,-1.707120,1.103809,-0.894593,0.229002,-0.595730,-0.769847,-0.132978,0.221874,-0.207555,-5.694651,-30.984776,16.571297,,,,,,
1480499943.92,0.309968,0.615154,2.826915,-2.137582,2.023642,-0.757532,0.249112,-0.577084,-0.777764,-0.288159,-0.086337,-0.204932,-5.528002,-31.323811,15.979784,,,,,,
1480499943.93,0.334536,0.586948,2.828961,-2.668462,2.508210,-0.657579,0.273380,-0.553822,-0.786476,-0.362338,-0.519100,-0.186073,-5.528002,-31.323811,15.979784,,,,,,
1480499943.94,0.360272,0.558430,2.834355,-2.577044,2.712821,-0.444330,0.298975,-0.529856,-0.793641,0.135488,-1.454168,-0.884215,-5.709878,-32.147758,14.177883,,,,,,
1480499943.95,0.384960,0.537024,2.841488,-1.876466,2.590686,-0.118320,0.322662,-0.511581,-0.796350,0.414277,-1.846619,-1.412314,-5.709878,-32.147758,14.177883,,,,,,
1480499943.96,0.403064,0.523980,2.847238,-1.130443,1.689472,-0.050503,0.339614,-0.500330,-0.796450,0.397325,-1.857870,-1.412214,-6.214211,-32.859234,12.196222,,,,,,
1480499943.97,0.408774,0.515629,2.848099,-0.631563,0.175073,-0.323715,0.345805,-0.493082,-0.798304,0.994557,-2.189993,-2.688711,-6.214211,-32.859234,12.196222,,,,,,
1480499943.98,0.401398,0.510054,2.842988,-0.206201,-1.245915,-0.673838,0.340976,-0.488224,-0.803351,1.233213,-2.282024,-3.374674,-6.434114,-33.136009,11.300468,,,,,,
1480499943.99,0.387189,0.508197,2.832891,0.282551,-1.894882,-0.858809,0.329869,-0.486603,-0.808953,1.214901,-2.080093,-3.674507,-6.434114,-33.136009,11.300468,,,,,,
1480499944.00,0.373640,0.512024,2.820161,0.871303,-1.779649,-0.801150,0.318196,-0.489943,-0.811608,0.958812,-1.766909,-3.522895,-5.602925,-33.246368,11.418387,,,,,,
1480499944.01,0.365123,0.522846,2.807019,1.471547,-1.266019,-0.566386,0.309361,-0.499348,-0.809288,0.642620,-1.524410,-3.060005,-5.602925,-33.246368,11.418387,,,,,,
1480499944.02,0.361647,0.539526,2.795009,1.894256,-0.782120,-0.280559,0.303556,-0.513729,-0.802456,0.443773,-1.356067,-2.493641,-4.673663,-33.066372,12.323364,,,,,,
1480499944.03,0.360753,0.559976,2.784863,2.118710,-0.533901,-0.014062,0.299068,-0.531166,-0.792730,0.428776,-1.228539,-2.006174,-4.429025,-32.839401,13.001947,,,,,,
1480499944.05,0.359474,0.582513,2.777131,2.199420,-0.517069,0.236123,0.293767,-0.550124,-0.781706,0.427257,-1.053559,-1.610842,-4.429025,-32.839401,13.001947,,,,,,
1480499944.06,0.355875,0.606044,2.772688,2.166578,-0.584146,0.523034,0.286362,-0.569621,-0.770408,0.385712,-0.816167,-1.244850,-4.300631,-32.207584,14.535112,,,,,,
1480499944.07,0.349783,0.629712,2.772582,2.046899,-0.559075,0.837220,0.276964,-0.588912,-0.759259,0.216536,-0.252519,-0.525608,-4.300631,-32.207584,14.535112,,,,,,
1480499944.08,0.342389,0.653161,2.777139,1.914525,-0.381168,1.137816,0.266632,-0.607700,-0.748069,0.143890,0.007969,-0.199974,-4.523009,-31.454092,16.039822,,,,,,
1480499944.09,0.335076,0.676303,2.785434,1.820984,-0.151464,1.333402,0.256460,-0.625914,-0.736519,0.091913,0.242964,0.125938,-4.523009,-31.454092,16.039822,,,,,,
1480499944.10,0.328339,0.699621,2.795325,1.841255,-0.012473,1.396196,0.246719,-0.643928,-0.724214,0.043855,0.456901,0.410585,-5.192548,-30.656197,17.329988,,,,,,
1480499944.11,0.321896,0.723499,2.805370,1.898340,0.006169,1.371521,0.237115,-0.662011,-0.710998,-0.004250,0.674676,0.631011,-5.192548,-30.656197,17.329988,,,,,,
1480499944.12,0.316462,0.746471,2.812903,1.853337,-0.060459,1.072533,0.228454,-0.679052,-0.697637,-0.092132,0.914511,0.771154,-6.082987,-29.776005,18.533218,,,,,,
1480499944.13,0.313989,0.766136,2.813802,1.684234,-0.210289,0.461148,0.222559,-0.693356,-0.685365,-0.210550,1.122479,0.858384,-6.082987,-29.776005,18.533218,,,,,,
1480499944.14,0.317111,0.781950,2.806133,1.524710,-0.187887,-0.181005,0.221251,-0.704664,-0.674163,-0.338896,1.284178,0.946456,-6.605191,-28.917194,19.678942,,,,,,
1480499944.15,0.326785,0.793475,2.793060,1.187024,0.138517,-0.548687,0.225140,-0.712795,-0.664256,-0.510495,1.391917,1.081904,-6.551792,-28.585716,20.174841,,,,,,
1480499944.16,0.340966,0.798037,2.780521,0.474575,0.595445,-0.644019,0.233448,-0.715987,-0.657924,-0.728397,1.439834,1.249935,-6.551792,-28.585716,20.174841,,,,,,
1480499944.17,0.354763,0.794123,2.772897,-0.389419,0.816290,-0.570163,0.243474,-0.713249,-0.657264,-0.858693,1.439796,1.419334,-6.330578,-28.231550,20.736361,,,,,,
1480499944.18,0.364981,0.783039,2.770820,-1.080017,0.811076,-0.469055,0.252983,-0.705437,-0.662086,-0.839134,1.346626,1.591530,-6.330578,-28.231550,20.736361,,,,,,
1480499944.20,0.371900,0.767103,2.773308,-1.553758,0.812262,-0.348556,0.261610,-0.694053,-0.670709,-0.754851,1.154349,1.737360,-6.352834,-28.545383,20.295221,,,,,,
1480499944.21,0.376504,0.748582,2.779091,-1.806271,0.791178,-0.246649,0.269377,-0.680601,-0.681336,-0.438200,0.968397,1.660615,-6.352834,-28.545383,20.295221,,,,,,
1480499944.22,0.379617,0.729159,2.785647,-1.853147,0.663846,-0.261486,0.276343,-0.666242,-0.692644,-0.357413,0.922926,1.455934,-6.493309,-29.266729,19.193459,,,,,,
1480499944.23,0.381876,0.710511,2.790383,-1.689788,0.444693,-0.369358,0.282488,-0.652221,-0.703426,-0.318987,0.868057,1.229091,-6.493309,-29.266729,19.193459,,,,,,
1480499944.24,0.383554,0.694488,2.791585,-1.315570,0.150513,-0.521429,0.287543,-0.639992,-0.712551,-0.310172,0.836189,1.003063,-6.547013,-30.022778,17.968388,,,,,,
1480499944.25,0.384390,0.682734,2.788242,-0.791849,-0.203900,-0.671839,0.290939,-0.630917,-0.719235,-0.343689,0.828320,0.780315,-6.435688,-30.325733,17.493574,,,,,,
1480499944.26,0.384880,0.676027,2.780487,-0.232289,-0.466955,-0.778193,0.292874,-0.625699,-0.722998,-0.379345,0.802197,0.573752,-6.435688,-30.325733,17.493574,,,,,,
1480499944.27,0.385796,0.674162,2.769807,0.237552,-0.546973,-0.782941,0.293974,-0.624243,-0.723810,-0.379240,0.760916,0.398218,-5.883167,-30.657793,17.105015,,,,,,
1480499944.28,0.387093,0.675551,2.758185,0.487777,-0.565200,-0.719336,0.294585,-0.625327,-0.722624,-0.358230,0.706886,0.269056,-5.883167,-30.657793,17.105015,,,,,,
1480499944.29,0.387642,0.678039,2.747295,0.505777,-0.588779,-0.622366,0.294393,-0.627267,-0.721019,-0.311467,0.644265,0.233516,-5.181334,-30.642683,17.357227,,,,,,
1480499944.30,0.387427,0.679715,2.738278,0.340457,-0.526258,-0.522247,0.293840,-0.628572,-0.720108,-0.270281,0.554338,0.306732,-5.181334,-30.642683,17.357227,,,,,,
1480499944.31,0.386799,0.679217,2.732127,0.044987,-0.376932,-0.400358,0.293506,-0.628184,-0.720582,-0.238895,0.493175,0.426851,-4.577162,-30.534752,17.713610,,,,,,
1480499944.32,0.386127,0.675782,2.729557,-0.317165,-0.157917,-0.258304,0.293832,-0.625508,-0.722774,-0.209863,0.474766,0.575100,-4.577162,-30.534752,17.713610,,,,,,
1480499944.33,0.385280,0.669853,2.730131,-0.591374,-0.021471,-0.140058,0.294609,-0.620870,-0.726447,-0.211693,0.407736,0.820884,-4.219645,-30.588081,17.710373,,,,,,
1480499944.35,0.383040,0.662689,2.733608,-0.748158,-0.007775,0.035884,0.294636,-0.615239,-0.731212,-0.202518,0.395177,0.874278,-4.219645,-30.588081,17.710373,,,,,,
1480499944.36,0.379127,0.656034,2.739937,-0.739037,-0.002651,0.259378,0.293281,-0.609979,-0.736147,-0.164436,0.384408,0.848329,-4.149194,-30.829657,17.303463,,,,,,
1480499944.37,0.373714,0.650983,2.747922,-0.624130,-0.077532,0.402656,0.290413,-0.605968,-0.740582,-0.109734,0.398235,0.708081,-4.215560,-30.958687,17.055267,,,,,,
1480499944.38,0.367748,0.647765,2.755182,-0.415729,-0.171697,0.379031,0.286689,-0.603406,-0.744117,-0.036720,0.397794,0.542091,-4.215560,-30.958687,17.055267,,,,,,
1480499944.39,0.363119,0.646677,2.759097,-0.121978,-0.207566,0.173338,0.283475,-0.602538,-0.746050,0.037265,0.384703,0.359026,-4.436276,-31.127411,16.688238,,,,,,
1480499944.40,0.364462,0.647128,2.757766,0.126152,0.187382,-0.168412,0.284380,-0.602897,-0.745415,0.048186,0.394523,0.175423,-4.436276,-31.127411,16.688238,,,,,,
1480499944.41,0.378783,0.648109,2.751290,0.308047,1.302323,-0.492673,0.294806,-0.603680,-0.740716,0.014199,0.369107,-0.007758,-4.460276,-31.142086,16.654423,,,,,,
1480499944.42,0.412400,0.650158,2.740965,0.522032,2.997600,-0.666030,0.319040,-0.605312,-0.729254,-0.070886,0.244274,-0.179117,-4.460276,-31.142086,16.654423,,,,,,
1480499944.43,0.462022,0.650797,2.729661,0.304684,4.255846,-0.770476,0.354646,-0.605821,-0.712185,-0.163057,-0.018187,-0.308857,-4.741266,-31.062368,16.725525,,,,,,
1480499944.44,0.516529,0.644587,2.720581,-0.343148,4.607192,-0.889131,0.394770,-0.600868,-0.695064,-0.151667,-0.439873,-0.480809,-4.741266,-31.062368,16.725525,,,,,,
1480499944.45,0.563484,0.637333,2.714237,-0.255055,3.745454,-0.681563,0.429276,-0.595054,-0.679435,0.023238,-0.979806,-0.874092,-5.729457,-31.113541,16.316071,,,,,,
1480499944.46,0.593120,0.638244,2.708897,0.490702,2.003167,-0.120942,0.448918,-0.595786,-0.665967,0.316539,-1.701043,-1.504123,-5.729457,-31.113541,16.316071,,,,,,
1480499944.47,0.599188,0.650781,2.707832,1.156133,0.000864,0.859609,0.448702,-0.605808,-0.657010,0.622098,-2.470761,-2.132189,-6.498001,-31.190071,15.876046,,,,,,
1480499944.48,0.579283,0.672442,2.716341,1.348573,-1.781555,1.889977,0.428252,-0.622898,-0.654675,2.022050,-2.873471,-3.752308,-6.498001,-31.190071,15.876046,,,,,,
1480499944.49,0.537587,0.696544,2.735797,1.071068,-3.022942,2.516778,0.392786,-0.641571,-0.658867,2.560583,-2.759568,-4.009773,-7.083095,-30.617083,16.718773,,,,,,
1480499944.51,0.481328,0.717009,2.762998,0.611643,-3.760347,2.621691,0.348965,-0.657133,-0.668131,2.738422,-2.549105,-3.624578,-7.360404,-30.220583,17.309944,,,,,,
1480499944.52,0.419822,0.731817,2.792598,0.272900,-3.915558,2.399465,0.303237,-0.668223,-0.679357,2.353044,-2.250570,-2.787593,-7.360404,-30.220583,17.309944,,,,,,
1480499944.53,0.363003,0.742805,2.820012,0.239651,-3.426215,2.056916,0.261545,-0.676356,-0.688575,1.595938,-1.830113,-1.848488,-7.554512,-29.609705,18.256180,,,,,,
1480499944.54,0.318933,0.753606,2.842187,0.536417,-2.443741,1.670893,0.228652,-0.684273,-0.692452,0.809297,-1.356224,-1.051903,-7.554512,-29.609705,18.256180,,,,,,
1480499944.55,0.291152,0.767099,2.857227,1.026162,-1.371562,1.237755,0.206659,-0.694050,-0.689628,-0.178385,-0.580410,-0.096139,-7.533345,-29.160423,18.973976,,,,,,
1480499944.56,0.278508,0.784137,2.864345,1.509661,-0.519425,0.797632,0.194644,-0.706214,-0.680717,-0.372866,-0.238549,0.107185,-7.618518,-28.866894,19.384373,,,,,,
1480499944.57,0.277399,0.804147,2.864899,1.866006,0.059838,0.479049,0.189980,-0.720239,-0.667205,-0.466240,0.072397,0.190597,-7.618518,-28.866894,19.384373,,,,,,
1480499944.58,0.283157,0.825448,2.862206,1.967093,0.439973,0.368487,0.189489,-0.734852,-0.651219,-0.465749,0.087009,0.174611,-7.618518,-28.866894,19.384373,,,,,,
1480499944.59,0.291901,0.845463,2.859410,1.783509,0.670707,0.365196,0.190904,-0.748278,-0.635323,-0.460222,0.401400,0.229286,-8.090075,-27.601244,20.971775,,,,,,
1480499944.60,0.300046,0.862602,2.858610,1.464931,0.695372,0.446876,0.192254,-0.759538,-0.621403,-0.367364,0.660935,0.328785,-8.090075,-27.601244,20.971775,,,,,,
1480499944.61,0.303892,0.876655,2.860946,1.130466,0.454469,0.544907,0.191429,-0.768603,-0.610413,-0.243874,0.812686,0.466462,-8.622207,-26.754578,21.839039,,,,,,
1480499944.62,0.302160,0.887526,2.865888,0.798780,0.103584,0.603510,0.187874,-0.775512,-0.602731,-0.154152,0.912231,0.631066,-8.622207,-26.754578,21.839039,,,,,,
1480499944.63,0.294174,0.895424,2.874066,0.489021,-0.230257,0.686825,0.181273,-0.780474,-0.598331,-0.111403,1.011111,0.765262,-9.105804,-26.154028,22.363911,,,,,,
1480499944.64,0.283770,0.900260,2.882052,0.246989,-0.423617,0.516738,0.173979,-0.783489,-0.596554,-0.055785,1.113033,0.818066,-9.105804,-26.154028,22.363911,,,,,,
1480499944.66,0.276048,0.902494,2.886407,0.097807,-0.381607,0.222279,0.168890,-0.784875,-0.596194,-0.043829,1.193414,0.838717,-9.322983,-25.822197,22.658102,,,,,,
1480499944.67,0.273565,0.902746,2.887025,-0.011361,-0.085579,0.002263,0.167356,-0.785031,-0.596421,-0.086515,1.238598,0.875535,-9.322983,-25.822197,22.658102,,,,,,
1480499944.68,0.276941,0.901534,2.887111,-0.163184,0.450356,-0.037119,0.169628,-0.784280,-0.596768,-0.289761,1.281945,1.000119,-9.273944,-25.753262,22.756468,,,,,,
1480499944.69,0.284913,0.896704,2.887050,-0.535680,0.818389,-0.168152,0.175443,-0.781274,-0.599025,-0.439054,1.285684,1.066738,-9.345040,-25.782686,22.693981,,,,,,
1480499944.70,0.294819,0.886964,2.886511,-0.966679,0.883202,-0.327442,0.183571,-0.775158,-0.604510,-0.478996,1.248165,1.150790,-9.345040,-25.782686,22.693981,,,,,,
1480499944.71,0.303546,0.873379,2.886357,-1.281287,0.775081,-0.391378,0.191969,-0.766503,-0.612879,-0.406950,1.214608,1.165049,-9.619567,-26.136259,22.168745,,,,,,
1480499944.72,0.310154,0.857585,2.887407,-1.466361,0.671099,-0.378858,0.199685,-0.756265,-0.623048,-0.413507,1.132211,1.163866,-9.619567,-26.136259,22.168745,,,,,,
1480499944.73,0.315269,0.840872,2.889446,-1.532820,0.606904,-0.360746,0.206760,-0.745225,-0.633948,-0.420902,1.116593,1.119300,-9.750286,-26.828564,21.266253,,,,,,
1480499944.74,0.320151,0.824596,2.890914,-1.441145,0.536321,-0.400275,0.213642,-0.734273,-0.644360,-0.384540,1.087820,1.005642,-9.750286,-26.828564,21.266253,,,,,,
1480499944.75,0.325165,0.810092,2.890539,-1.213349,0.407692,-0.470331,0.220249,-0.724350,-0.653305,-0.311436,0.988571,0.870376,-9.794506,-27.573292,20.270044,,,,,,
1480499944.76,0.329974,0.798359,2.888013,-0.904700,0.239486,-0.516785,0.226127,-0.716212,-0.660233,-0.254173,0.894816,0.751053,-9.794506,-27.573292,20.270044,,,,,,
1480499944.77,0.334642,0.790007,2.883568,-0.552058,0.110128,-0.535399,0.231163,-0.710358,-0.664797,-0.244255,0.824250,0.631395,-9.661842,-28.155218,19.519882,,,,,,
1480499944.78,0.339401,0.785074,2.877307,-0.217159,0.006850,-0.543381,0.235488,-0.706878,-0.666985,-0.258315,0.765441,0.499810,-9.661842,-28.155218,19.519882,,,,,,
1480499944.79,0.344387,0.783141,2.869704,0.061209,-0.046930,-0.532257,0.239271,-0.705509,-0.667088,-0.264555,0.717182,0.394994,-9.372220,-28.459536,19.217434,,,,,,
1480499944.82,0.355522,0.782977,2.852571,0.195345,-0.058354,-0.535793,0.246725,-0.705393,-0.664491,-0.284597,0.574655,0.345094,-9.201906,-28.512976,19.220526,,,,,,
1480499944.81,0.349906,0.782911,2.861252,0.195118,-0.038034,-0.534828,0.243005,-0.705346,-0.665910,-0.280877,0.574609,0.346513,-9.201906,-28.512976,19.220526,,,,,,
1480499944.84,0.363247,0.779956,2.837810,-0.090784,-0.139695,-0.486693,0.252607,-0.703248,-0.664554,-0.338742,0.530137,0.527256,-8.856550,-28.539173,19.343493,,,,,,
1480499944.83,0.359974,0.782230,2.844579,0.089182,-0.124254,-0.514893,0.249866,-0.704863,-0.663879,-0.336002,0.531752,0.526581,-8.856550,-28.539173,19.343493,,,,,,
1480499944.85,0.366192,0.775653,2.832174,-0.292375,-0.069390,-0.502324,0.255644,-0.700182,-0.666626,-0.374952,0.545870,0.621018,-8.494107,-28.616886,19.391167,,,,,,
1480499944.86,0.370952,0.769370,2.826638,-0.447851,0.144899,-0.577450,0.260404,-0.695683,-0.669489,-0.393888,0.566761,0.702417,-8.494107,-28.616886,19.391167,,,,,,
1480499944.87,0.378584,0.761903,2.820572,-0.510381,0.371142,-0.652593,0.267418,-0.690300,-0.672290,-0.364159,0.584160,0.769061,-8.168744,-28.845942,19.190536,,,,,,
1480499944.88,0.388512,0.754220,2.813739,-0.479296,0.530469,-0.714512,0.276081,-0.684720,-0.674491,-0.358447,0.582959,0.805152,-8.168744,-28.845942,19.190536,,,,,,
1480499944.89,0.400897,0.747343,2.805897,-0.350566,0.699452,-0.747572,0.286243,-0.679692,-0.675339,-0.359668,0.576131,0.792695,-7.918907,-29.162493,18.813114,,,,,,
1480499944.90,0.415055,0.742017,2.796630,-0.149407,0.728288,-0.803634,0.297231,-0.675776,-0.674522,-0.316182,0.573710,0.687706,-7.918907,-29.162493,18.813114,,,,,,
1480499944.91,0.429782,0.737892,2.784178,0.039303,0.534473,-1.002928,0.308291,-0.672729,-0.672601,-0.240878,0.561020,0.520882,-7.719251,-29.408129,18.511307,,,,,,
1480499944.93,0.461435,0.722197,2.747133,-0.330651,0.285054,-1.785867,0.334083,-0.661035,-0.671879,-0.073097,0.399545,0.152622,-7.539511,-29.484888,18.463221,,,,,,
1480499944.92,0.444981,0.732371,2.767422,-0.003531,0.326742,-1.374467,0.320072,-0.668634,-0.671180,-0.059086,0.407145,0.151923,-7.539511,-29.484888,18.463221,,,,,,
1480499944.94,0.479871,0.705761,2.727429,-0.900923,0.625387,-1.963734,0.351381,-0.648613,-0.675153,-0.043505,0.239434,-0.059359,-6.729220,-29.752508,18.346642,,,,,,
1480499944.95,0.500204,0.681995,2.713865,-1.707477,1.249850,-1.863958,0.372325,-0.630343,-0.681206,-0.139400,-0.237180,-0.329307,-6.729220,-29.752508,18.346642,,,,,,
1480499944.97,0.520185,0.653522,2.709090,-2.253634,1.663963,-1.495162,0.394624,-0.607987,-0.688930,0.167754,-1.108947,-0.574330,-5.801474,-30.438700,17.519186,,,,,,
1480499944.98,0.535555,0.626978,2.712758,-2.255007,1.588108,-0.830534,0.413258,-0.586700,-0.696420,0.149120,-1.130234,-0.566840,-5.801474,-30.438700,17.519186,,,,,,
1480499944.99,0.541130,0.606555,2.724170,-2.031866,0.946266,-0.033588,0.423219,-0.570040,-0.704230,0.530272,-1.723921,-0.831643,-5.514362,-31.388002,15.858075,,,,,,
1480499945.00,0.533412,0.591000,2.741966,-1.937098,-0.048881,0.561733,0.422229,-0.557191,-0.715025,0.953275,-2.255278,-1.329912,-5.514362,-31.388002,15.858075,,,,,,
1480499945.01,0.512041,0.578501,2.762704,-1.762200,-1.232144,0.884580,0.410233,-0.546770,-0.729898,1.537902,-2.517409,-2.079321,-5.807489,-32.028297,14.406760,,,,,,
1480499945.02,0.479206,0.570205,2.783032,-1.313499,-2.270955,1.072808,0.388129,-0.539804,-0.746972,2.055612,-2.641592,-2.765204,-5.807489,-32.028297,14.406760,,,,,,
1480499945.03,0.441766,0.567131,2.800699,-0.724192,-2.656601,1.118265,0.360604,-0.537215,-0.762473,2.214195,-2.650087,-3.088052,-6.008563,-32.396118,13.471527,,,,,,
1480499945.05,0.383392,0.577244,2.819435,0.682679,-1.910961,0.623937,0.313458,-0.545717,-0.777134,1.699374,-2.016508,-2.904492,-6.022374,-32.449688,13.335746,,,,,,
1480499945.04,0.408314,0.569383,2.813505,-0.050704,-2.389882,0.949741,0.334420,-0.539112,-0.772995,1.678413,-2.023113,-2.908630,-6.022374,-32.449688,13.335746,,,,,,
1480499945.06,0.367339,0.590750,2.817797,1.397232,-1.488514,0.252320,0.298268,-0.556984,-0.775116,1.256511,-1.735878,-2.606079,-5.968435,-32.298935,13.720428,,,,,,
1480499945.07,0.358577,0.609610,2.809519,2.022975,-1.184274,-0.033383,0.287727,-0.572548,-0.767725,0.800667,-1.480797,-2.189642,-5.968435,-32.298935,13.720428,,,,,,
1480499945.09,0.354963,0.658359,2.785705,2.555567,-0.617853,0.072259,0.274915,-0.611819,-0.741686,-0.004637,-0.530164,-1.089155,-5.663536,-31.799870,14.959482,,,,,,
1480499945.08,0.355287,0.632768,2.797371,2.438636,-0.896879,-0.111192,0.280512,-0.591379,-0.756032,-0.010233,-0.550604,-1.074809,-5.663536,-31.799870,14.959482,,,,,,
1480499945.10,0.354839,0.683831,2.778059,2.364442,-0.410804,0.387430,0.269320,-0.631767,-0.726868,-0.042681,-0.276405,-0.742035,-5.352948,-30.975739,16.701584,,,,,,
1480499945.12,0.351826,0.707531,2.776759,2.022953,-0.358628,0.779956,0.261895,-0.649959,-0.713417,0.009177,-0.080921,-0.362328,-5.352948,-30.975739,16.701584,,,,,,
1480499945.13,0.343357,0.729344,2.782412,1.709586,-0.488997,1.161152,0.251010,-0.666381,-0.702090,0.084317,0.083266,0.034549,-5.520297,-30.070694,18.231106,,,,,,
1480499945.14,0.328255,0.749495,2.793698,1.464862,-0.772828,1.403530,0.236001,-0.681269,-0.692948,0.144019,0.275858,0.398468,-5.520297,-30.070694,18.231106,,,,,,
1480499945.15,0.308310,0.767685,2.807446,1.272940,-1.045453,1.414461,0.218338,-0.694472,-0.685593,0.169251,0.505614,0.665970,-6.058092,-29.256395,19.350874,,,,,,
1480499945.16,0.286076,0.783096,2.821499,1.045019,-1.174071,1.253065,0.199997,-0.705477,-0.679929,0.094116,0.964144,0.949506,-6.293674,-28.885427,19.827135,,,,,,
1480499945.17,0.269307,0.794993,2.829552,0.899114,-0.951822,0.650349,0.186322,-0.713858,-0.675048,0.107792,0.972525,0.944625,-6.293674,-28.885427,19.827135,,,,,,
1480499945.18,0.264319,0.805829,2.828960,1.032507,-0.335015,0.107424,0.180920,-0.721405,-0.668463,-0.044782,1.172531,1.033819,-6.472668,-28.300951,20.597429,,,,,,
1480499945.19,0.271564,0.815495,2.822265,0.913372,0.423367,-0.250547,0.183880,-0.728065,-0.660386,-0.266094,1.294227,1.150391,-6.472668,-28.300951,20.597429,,,,,,
1480499945.20,0.288215,0.818901,2.814707,0.254699,1.237156,-0.409083,0.194143,-0.730396,-0.654851,-0.491842,1.366733,1.330068,-6.427196,-27.855803,21.209404,,,,,,
1480499945.21,0.309405,0.814381,2.809483,-0.478328,1.715392,-0.448254,0.208979,-0.727301,-0.653729,-0.812189,1.350424,1.489895,-6.427196,-27.855803,21.209404,,,,,,
1480499945.22,0.330485,0.803959,2.807761,-1.011620,1.884299,-0.391300,0.225160,-0.720108,-0.656313,-0.843186,1.240631,1.617113,-6.787388,-27.882910,21.061056,,,,,,
1480499945.24,0.363184,0.773998,2.815940,-1.564357,1.618033,-0.130646,0.254049,-0.699000,-0.668475,-0.641500,0.959040,1.625476,-7.077770,-28.112032,20.657013,,,,,,
1480499945.23,0.349040,0.789895,2.810173,-1.372609,1.884565,-0.253924,0.240738,-0.710279,-0.661475,-0.628189,0.970320,1.618475,-7.077770,-28.112032,20.657013,,,,,,
1480499945.25,0.371382,0.757976,2.823821,-1.580180,1.152929,-0.018725,0.263551,-0.687453,-0.676720,-0.492570,0.883681,1.340248,-7.715730,-28.752752,19.515127,,,,,,
1480499945.27,0.374153,0.743448,2.831684,-1.403537,0.629251,0.004734,0.269048,-0.676830,-0.685212,-0.383397,0.815563,1.027329,-7.715730,-28.752752,19.515127,,,,,,
1480499945.28,0.373054,0.732009,2.837220,-1.031530,0.115185,-0.050316,0.271098,-0.668365,-0.692672,-0.287501,0.780899,0.724028,-8.118809,-29.373817,18.394487,,,,,,
1480499945.29,0.369239,0.724963,2.839113,-0.531943,-0.349458,-0.143024,0.270147,-0.663108,-0.698075,-0.226903,0.780173,0.451478,-8.118809,-29.373817,18.394487,,,,,,
1480499945.30,0.364440,0.722619,2.836074,0.004686,-0.722864,-0.326826,0.267347,-0.661352,-0.700814,-0.188871,0.788213,0.232537,-8.073384,-29.734758,17.825768,,,,,,
1480499945.31,0.359968,0.723884,2.828503,0.379286,-0.923815,-0.495517,0.263915,-0.662299,-0.701219,-0.188735,0.804832,0.067491,-8.073384,-29.734758,17.825768,,,,,,
1480499945.32,0.356296,0.727081,2.817961,0.581054,-1.018157,-0.609968,0.260598,-0.664692,-0.700195,-0.204843,0.806049,-0.039322,-7.549008,-29.763050,18.007406,,,,,,
1480499945.33,0.353445,0.731278,2.805977,0.677973,-0.999017,-0.650576,0.257633,-0.667822,-0.698312,-0.253376,0.797888,-0.053535,-7.549008,-29.763050,18.007406,,,,,,
1480499945.34,0.352050,0.735787,2.793868,0.678638,-0.841202,-0.638040,0.255618,-0.671171,-0.695837,-0.314242,0.808225,0.019506,-6.764589,-29.623405,18.541512,,,,,,
1480499945.35,0.352539,0.739549,2.782771,0.553805,-0.583355,-0.584796,0.255084,-0.673955,-0.693337,-0.352634,0.775609,0.404732,-6.764589,-29.623405,18.541512,,,,,,
1480499945.36,0.354895,0.741352,2.773378,0.320819,-0.299415,-0.537997,0.256295,-0.675285,-0.691594,-0.319344,0.738350,0.579610,-6.062375,-29.450920,19.052149,,,,,,
1480499945.37,0.358666,0.740659,2.766086,0.044643,-0.048293,-0.477256,0.259066,-0.674774,-0.691061,-0.281313,0.700714,0.745031,-5.813235,-29.407570,19.196213,,,,,,
1480499945.38,0.363152,0.737233,2.761216,-0.252219,0.161923,-0.412261,0.262982,-0.672242,-0.692048,-0.261548,0.669877,0.880052,-5.813235,-29.407570,19.196213,,,,,,
1480499945.39,0.367674,0.731644,2.758594,-0.472488,0.279894,-0.338566,0.267455,-0.668094,-0.694348,-0.242675,0.642321,0.977398,-5.524083,-29.476860,19.175316,,,,,,
1480499945.40,0.371588,0.724799,2.757269,-0.583057,0.274906,-0.314734,0.271825,-0.662985,-0.697540,-0.209264,0.615424,1.012573,-5.524083,-29.476860,19.175316,,,,,,
1480499945.41,0.374760,0.717952,2.756186,-0.550235,0.207209,-0.296331,0.275692,-0.657844,-0.700882,-0.169903,0.584006,1.005249,-5.420967,-29.716774,18.831350,,,,,,
1480499945.43,0.375686,0.712925,2.755726,-0.378072,0.003958,-0.158106,0.277550,-0.654049,-0.703695,-0.128457,0.569363,0.931981,-5.420967,-29.716774,18.831350,,,,,,
1480499945.44,0.374214,0.710515,2.756561,-0.181160,-0.102118,0.008668,0.277089,-0.652224,-0.705567,-0.090764,0.558703,0.779084,-5.316933,-29.944288,18.497652,,,,,,
1480499945.45,0.372772,0.710278,2.757947,-0.025413,-0.012751,0.103033,0.276128,-0.652045,-0.706110,-0.046636,0.552741,0.592172,-5.316933,-29.944288,18.497652,,,,,,
1480499945.46,0.375191,0.709626,2.759328,-0.144115,0.461428,0.041321,0.277991,-0.651550,-0.705835,0.036493,0.525833,0.406015,-5.307881,-29.997915,18.413170,,,,,,
1480499945.47,0.387202,0.705862,2.760483,-0.424417,1.472594,-0.077632,0.287373,-0.648690,-0.704711,0.108791,0.366784,0.230987,-5.307881,-29.997915,18.413170,,,,,,
1480499945.48,0.409110,0.698258,2.762105,-0.845263,2.300231,-0.212279,0.304695,-0.642884,-0.702752,0.121087,0.100221,0.116052,-5.606614,-30.085201,18.180758,,,,,,
1480499945.49,0.432660,0.679662,2.769043,-2.152367,2.736417,-0.234744,0.326115,-0.628530,-0.706115,-0.096944,-1.046152,-0.333298,-5.965374,-30.230486,17.822044,,,,,,
1480499945.50,0.453281,0.652853,2.786861,-2.939542,2.970621,0.252022,0.347862,-0.607455,-0.714136,0.074013,-1.530072,-0.782797,-6.370760,-30.581503,17.066877,,,,,,
1480499945.52,0.471084,0.618440,2.835009,-1.572555,1.289320,1.189929,0.369792,-0.579765,-0.726035,0.288060,-2.141915,-1.169198,-6.370760,-30.581503,17.066877,,,,,,
1480499945.51,0.467420,0.630402,2.810970,-2.521689,2.518744,0.824886,0.363978,-0.589469,-0.721142,0.293874,-2.132210,-1.174091,-6.370760,-30.581503,17.066877,,,,,,
1480499945.53,0.458972,0.616496,2.853720,-0.545709,-0.607731,1.160054,0.361470,-0.578179,-0.731470,0.955562,-2.441489,-1.671637,-8.231140,-31.646946,14.064585,,,,,,
1480499945.54,0.434009,0.623070,2.863073,0.501495,-2.166549,0.802007,0.341493,-0.583531,-0.736800,1.586684,-2.493725,-2.792436,-8.231140,-31.646946,14.064585,,,,,,
1480499945.55,0.406103,0.636274,2.862071,1.354437,-2.735829,0.301715,0.317731,-0.594203,-0.738898,1.945163,-2.419835,-3.731988,-8.651970,-31.538359,14.055913,,,,,,
1480499945.56,0.386250,0.653482,2.852140,1.879129,-2.220304,-0.176798,0.299103,-0.607955,-0.735478,1.896835,-2.147004,-4.110332,-8.651970,-31.538359,14.055913,,,,,,
1480499945.58,0.380790,0.672122,2.837093,2.053777,-1.075490,-0.420009,0.290820,-0.622648,-0.726453,1.461088,-1.714327,-3.882541,-7.977529,-31.040520,15.489947,,,,,,
1480499945.59,0.387581,0.690008,2.821593,1.919659,-0.045564,-0.399448,0.291491,-0.636543,-0.714035,0.859022,-1.348168,-3.169174,-7.977529,-31.040520,15.489947,,,,,,
1480499945.60,0.399700,0.704815,2.808832,1.512588,0.450178,-0.285253,0.296422,-0.647893,-0.701690,0.373851,-1.061168,-2.238434,-7.433746,-30.410049,16.942898,,,,,,
1480499945.61,0.410232,0.714983,2.800535,0.963844,0.467179,-0.119972,0.301152,-0.655605,-0.692452,0.054240,-0.848957,-1.321510,-7.433746,-30.410049,16.942898,,,,,,
1480499945.62,0.416235,0.720978,2.798265,0.455841,0.415477,0.150951,0.303709,-0.660120,-0.687025,-0.076185,-0.707602,-0.602740,-7.436429,-29.940380,17.758562,,,,,,
1480499945.63,0.418260,0.724365,2.802656,0.081092,0.485108,0.495756,0.304190,-0.662660,-0.684361,-0.037618,-0.397032,0.165685,-7.542006,-29.823925,17.909355,,,,,,
1480499945.64,0.417871,0.726660,2.813012,-0.146985,0.652251,0.829676,0.303306,-0.664377,-0.683087,-0.046500,-0.200872,0.389432,-7.542006,-29.823925,17.909355,,,,,,
1480499945.65,0.416615,0.729172,2.827533,-0.198196,0.826367,1.075726,0.301771,-0.666252,-0.681940,-0.019636,-0.022041,0.557230,-8.115108,-29.713961,17.841496,,,,,,
1480499945.66,0.415169,0.732855,2.843642,-0.106590,0.871885,1.181967,0.299793,-0.668995,-0.680125,-0.017322,0.112522,0.640346,-8.115108,-29.713961,17.841496,,,,,,
1480499945.67,0.413537,0.738111,2.858850,0.073519,0.768970,1.141968,0.297265,-0.672891,-0.677385,-0.022271,0.276132,0.641451,-9.122243,-29.575666,17.582890,,,,,,
1480499945.68,0.412247,0.744647,2.870597,0.289801,0.567122,0.920976,0.294623,-0.677712,-0.673724,-0.061819,0.453637,0.585543,-9.122243,-29.575666,17.582890,,,,,,
1480499945.69,0.412210,0.751830,2.876787,0.497751,0.332750,0.560512,0.292640,-0.682977,-0.669257,-0.132469,0.643319,0.523444,-10.066329,-29.306236,17.518759,,,,,,
1480499945.70,0.414664,0.759244,2.876600,0.680143,0.188873,0.174139,0.292233,-0.688374,-0.663884,-0.233944,0.834904,0.486943,-10.066329,-29.306236,17.518759,,,,,,
1480499945.71,0.420869,0.766459,2.871261,0.782358,0.274764,-0.124410,0.294310,-0.693589,-0.657507,-0.363448,0.968171,0.482306,-10.469420,-28.999882,17.790205,,,,,,
1480499945.73,0.431486,0.772793,2.863090,0.743803,0.529923,-0.283636,0.299431,-0.698138,-0.650342,-0.516915,1.057253,0.515393,-10.469420,-28.999882,17.790205,,,,,,
1480499945.74,0.444441,0.776889,2.855536,0.480679,0.770395,-0.282694,0.306598,-0.701065,-0.643821,-0.639881,1.101715,0.593406,-10.507803,-28.740538,18.184086,,,,,,
1480499945.75,0.455877,0.777639,2.852012,0.050608,0.842699,-0.137115,0.313710,-0.701599,-0.639801,-0.624165,0.893982,0.923889,-10.557188,-28.664368,18.275476,,,,,,
1480499945.76,0.461901,0.774750,2.854822,-0.447503,0.699054,0.109654,0.318460,-0.699538,-0.639711,-0.628915,0.891921,0.923799,-10.557188,-28.664368,18.275476,,,,,,
1480499945.77,0.461487,0.768463,2.863398,-0.884414,0.456913,0.289997,0.320147,-0.695031,-0.643769,-0.511203,0.789895,0.979065,-10.825191,-28.710152,18.045380,,,,,,
1480499945.78,0.456328,0.759657,2.875106,-1.134194,0.217063,0.350137,0.319507,-0.688673,-0.650881,-0.375659,0.715757,0.981722,-10.825191,-28.710152,18.045380,,,,,,
1480499945.79,0.448857,0.750212,2.886987,-1.131882,0.013861,0.336897,0.317443,-0.681794,-0.659080,-0.268707,0.658066,0.918602,-11.160540,-28.994015,17.374773,,,,,,
1480499945.80,0.440438,0.742150,2.897189,-0.915896,-0.192594,0.294156,0.314216,-0.675874,-0.666680,-0.238624,0.597246,0.816140,-11.160540,-28.994015,17.374773,,,,,,
1480499945.81,0.432043,0.736888,2.904006,-0.544113,-0.413840,0.187914,0.310094,-0.671987,-0.672514,-0.265370,0.606069,0.682768,-9.874450,-26.769495,18.667923,,,,,,
1480499945.82,0.424565,0.735106,2.905876,-0.087185,-0.636467,-0.005230,0.305549,-0.670666,-0.675905,-0.313865,0.656201,0.517152,-9.874450,-26.769495,18.667923,,,,,,
1480499945.83,0.419094,0.737111,2.901930,0.401456,-0.788181,-0.223408,0.301299,-0.672151,-0.676337,-0.330565,0.689394,0.350150,-9.765335,-26.910204,18.522444,,,,,,
1480499945.84,0.416923,0.742660,2.893003,0.821761,-0.743481,-0.389370,0.298315,-0.676250,-0.673568,-0.348043,0.726955,0.228897,-9.765335,-26.910204,18.522444,,,,,,
1480499945.85,0.418085,0.750548,2.880882,1.054592,-0.632984,-0.478959,0.296922,-0.682040,-0.668326,-0.392503,0.773684,0.160727,-9.309265,-26.761511,18.967369,,,,,,
1480499945.86,0.421345,0.758829,2.867830,1.059469,-0.493080,-0.499745,0.296779,-0.688072,-0.662178,-0.467449,0.845070,0.251853,-9.042253,-26.599688,19.320873,,,,,,
1480499945.87,0.425695,0.765897,2.855769,0.883703,-0.335118,-0.456830,0.297641,-0.693184,-0.656434,-0.468310,0.850182,0.246110,-9.042253,-26.599688,19.320873,,,,,,
1480499945.89,0.429696,0.770661,2.846156,0.597872,-0.229949,-0.384940,0.298886,-0.696610,-0.652229,-0.475888,0.841080,0.387443,-8.578876,-26.269054,19.973524,,,,,,
1480499945.90,0.432228,0.772566,2.839518,0.263027,-0.186375,-0.310498,0.299980,-0.697975,-0.650263,-0.402656,0.764443,0.741282,-8.578876,-26.269054,19.973524,,,,,,
1480499945.91,0.432664,0.771685,2.836264,-0.061875,-0.171330,-0.203533,0.300521,-0.697344,-0.650691,-0.302444,0.680605,0.956523,-8.277346,-26.115257,20.299772,,,,,,
1480499945.92,0.430954,0.769271,2.836173,-0.231980,-0.160230,-0.060921,0.300110,-0.695611,-0.652732,-0.302033,0.678873,0.958564,-8.277346,-26.115257,20.299772,,,,,,
1480499945.93,0.428089,0.767004,2.838426,-0.257356,-0.109013,0.079854,0.298893,-0.693981,-0.655021,-0.251880,0.633038,0.970894,-8.111160,-26.184782,20.277285,,,,,,
1480499945.94,0.424743,0.764657,2.842171,-0.333001,-0.056123,0.151723,0.297370,-0.692289,-0.657500,-0.192526,0.593382,0.936873,-8.111160,-26.184782,20.277285,,,,,,
1480499945.95,0.421420,0.760332,2.846838,-0.563962,0.008983,0.096965,0.296405,-0.689162,-0.661211,-0.095569,0.578291,0.851305,-8.122633,-26.289461,20.136759,,,,,,
1480499945.96,0.418951,0.752428,2.850926,-0.868701,0.027555,-0.114422,0.296979,-0.683413,-0.666896,-0.004605,0.543093,0.720164,-8.122633,-26.289461,20.136759,,,,,,
1480499945.97,0.418176,0.739397,2.852595,-1.266276,0.054319,-0.498430,0.300053,-0.673842,-0.675207,0.027324,0.463912,0.597418,-8.148109,-26.557579,19.771322,,,,,,
1480499945.98,0.423789,0.719812,2.849760,-1.686333,0.494198,-1.087877,0.309207,-0.659243,-0.685412,-0.129809,0.192050,0.450716,-8.043640,-26.834566,19.437279,,,,,,
1480499945.99,0.441051,0.694576,2.840817,-1.933466,1.265004,-1.715055,0.327991,-0.640059,-0.694799,-0.148593,0.172866,0.460104,-8.043640,-26.834566,19.437279,,,,,,
1480499946.00,0.467887,0.664630,2.829682,-2.244870,2.060448,-1.980731,0.355004,-0.616768,-0.702545,-0.325279,-0.037514,0.312500,-7.599384,-27.743122,18.307663,,,,,,
1480499946.01,0.499631,0.633707,2.824008,-2.368118,2.813552,-1.591142,0.386079,-0.592136,-0.707332,-0.490968,-0.266385,0.143245,-7.599384,-27.743122,18.307663,,,,,,
1480499946.02,0.531503,0.607308,2.825709,-2.144024,3.117149,-0.933010,0.416202,-0.570659,-0.707902,-0.553333,-0.532231,-0.094116,-7.324874,-28.879545,16.580709,,,,,,
1480499946.04,0.557514,0.587743,2.834098,-1.823390,2.697641,-0.208904,0.440296,-0.554484,-0.706178,0.218609,-1.236257,-0.969314,-7.324874,-28.879545,16.580709,,,,,,
1480499946.05,0.566590,0.574549,2.848336,-1.581344,1.129440,0.423876,0.450575,-0.543456,-0.708264,1.575441,-2.060517,-2.295414,-7.854549,-29.690273,14.812004,,,,,,
1480499946.06,0.552739,0.565731,2.865107,-1.329269,-0.982871,0.729134,0.443221,-0.536033,-0.718487,1.582795,-2.067940,-2.285190,-7.854549,-29.690273,14.812004,,,,,,
1480499946.07,0.520632,0.559996,2.879320,-0.924592,-2.665645,0.651295,0.421450,-0.531183,-0.735000,2.361647,-2.225622,-3.301118,-8.341298,-30.068079,13.745378,,,,,,
1480499946.08,0.480624,0.557324,2.888101,-0.424342,-3.438813,0.440132,0.392369,-0.528917,-0.752525,2.390727,-2.227889,-3.283593,-8.341298,-30.068079,13.745378,,,,,,
1480499946.09,0.442290,0.558756,2.892175,0.113517,-3.296910,0.329342,0.362916,-0.530132,-0.766324,2.206221,-2.061345,-3.324161,-7.903749,-30.196850,13.721622,,,,,,
1480499946.11,0.392567,0.575348,2.893152,0.983176,-1.597760,0.356601,0.320971,-0.544127,-0.775180,0.989759,-1.596956,-2.453961,-7.515085,-30.171619,13.992817,,,,,,
1480499946.10,0.412045,0.565009,2.893474,0.607786,-2.551765,0.342407,0.338242,-0.535424,-0.773895,0.972488,-1.605659,-2.455246,-7.515085,-30.171619,13.992817,,,,,,
1480499946.12,0.383137,0.587998,2.891909,1.171220,-0.745403,0.356999,0.311048,-0.554697,-0.771726,0.545153,-1.399649,-1.863131,-7.031501,-29.903614,14.796410,,,,,,
1480499946.13,0.380988,0.601625,2.890722,1.219910,-0.125506,0.406833,0.306549,-0.565983,-0.765304,0.289871,-1.208431,-1.312851,-7.031501,-29.903614,14.796410,,,,,,
1480499946.14,0.383055,0.615115,2.890984,1.132357,0.305023,0.522324,0.305249,-0.577052,-0.757518,0.119510,-0.978185,-0.860844,-7.073483,-29.465006,15.632691,,,,,,
1480499946.15,0.386790,0.627555,2.893818,0.944687,0.557377,0.673100,0.305345,-0.587167,-0.749666,-0.012376,-0.723594,-0.487928,-7.073483,-29.465006,15.632691,,,,,,
1480499946.16,0.390300,0.638459,2.899124,0.744501,0.627821,0.778243,0.305520,-0.595958,-0.742624,-0.115213,-0.199955,0.050699,-7.546951,-29.008657,16.252483,,,,,,
1480499946.17,0.392241,0.648321,2.906051,0.634441,0.540400,0.844873,0.304699,-0.603849,-0.736563,-0.130123,0.019712,0.229574,-7.546951,-29.008657,16.252483,,,,,,
1480499946.18,0.391752,0.658523,2.913658,0.693373,0.323650,0.898223,0.301971,-0.611949,-0.730980,-0.147552,0.217372,0.347847,-8.245360,-28.620335,16.597961,,,,,,
1480499946.20,0.388121,0.670537,2.920531,0.904589,-0.040629,0.886039,0.296511,-0.621406,-0.725214,-0.154605,0.429039,0.411661,-8.245360,-28.620335,16.597961,,,,,,
1480499946.21,0.381980,0.684338,2.925307,1.112633,-0.372775,0.773058,0.288827,-0.632160,-0.718994,-0.143625,0.656742,0.426727,-8.865886,-28.185308,17.017235,,,,,,
1480499946.22,0.374375,0.698832,2.927322,1.225363,-0.659607,0.581533,0.279971,-0.643324,-0.712566,-0.110537,0.860197,0.426510,-9.053922,-27.912098,17.364998,,,,,,
1480499946.23,0.366859,0.712358,2.926059,1.195924,-0.801330,0.297609,0.271461,-0.653620,-0.706463,-0.113014,1.009760,0.431454,-9.053922,-27.912098,17.364998,,,,,,
1480499946.24,0.362105,0.723046,2.921505,0.981506,-0.674113,-0.018733,0.265610,-0.661671,-0.701172,-0.196655,1.097783,0.489777,-9.091537,-27.354044,18.212692,,,,,,
1480499946.25,0.361462,0.729442,2.915965,0.585485,-0.295643,-0.167601,0.263657,-0.666453,-0.697370,-0.292969,1.149409,0.622770,-9.091537,-27.354044,18.212692,,,,,,
1480499946.26,0.363933,0.731055,2.914081,0.043445,0.260558,-0.015741,0.264996,-0.667656,-0.695711,-0.417599,1.161430,0.821977,-8.840980,-27.017338,18.828236,,,,,,
1480499946.27,0.367661,0.727256,2.918300,-0.595915,0.703198,0.196947,0.268498,-0.664823,-0.697080,-0.547291,1.113263,1.052304,-8.840980,-27.017338,18.828236,,,,,,
1480499946.28,0.370211,0.718232,2.927093,-1.133400,0.775255,0.284950,0.272434,-0.658055,-0.701957,-0.645130,0.995152,1.275886,-9.009369,-27.059713,18.687029,,,,,,
1480499946.29,0.369712,0.705662,2.938178,-1.437831,0.566945,0.314153,0.275051,-0.648538,-0.709751,-0.649426,0.864648,1.454135,-9.009369,-27.059713,18.687029,,,,,,
1480499946.30,0.366041,0.691979,2.949969,-1.500837,0.301962,0.327358,0.275594,-0.638062,-0.718974,-0.517675,0.631196,1.466640,-9.454449,-27.469187,17.851025,,,,,,
1480499946.32,0.357401,0.668214,2.968584,-1.051501,0.079254,0.151030,0.274601,-0.619585,-0.735329,-0.486240,0.699007,1.054024,-9.620031,-27.717806,17.371819,,,,,,
1480499946.31,0.361215,0.678953,2.960743,-1.371076,0.161328,0.275115,0.275035,-0.627978,-0.728010,-0.486675,0.707400,1.046705,-9.620031,-27.717806,17.371819,,,,,,
1480499946.33,0.354683,0.661166,2.972706,-0.604823,-0.052588,0.023915,0.274110,-0.614038,-0.740149,-0.462968,0.712259,0.845817,-9.815308,-28.132244,16.578253,,,,,,
1480499946.35,0.352809,0.658585,2.972717,-0.101868,-0.212410,-0.120157,0.273270,-0.611998,-0.742147,-0.462067,0.717986,0.703344,-9.815308,-28.132244,16.578253,,,,,,
1480499946.36,0.352058,0.659573,2.969384,0.235769,-0.263148,-0.220854,0.272504,-0.612779,-0.741784,-0.471036,0.736925,0.585397,-9.773308,-28.302223,16.311607,,,,,,
1480499946.37,0.352749,0.661960,2.964485,0.353427,-0.203108,-0.271695,0.272510,-0.614664,-0.740221,-0.452076,0.758814,0.479463,-9.773308,-28.302223,16.311607,,,,,,
1480499946.38,0.354030,0.664464,2.959602,0.332659,-0.141186,-0.243505,0.272923,-0.616637,-0.738425,-0.390721,0.763259,0.433524,-9.549890,-28.261061,16.514057,,,,,,
1480499946.39,0.355872,0.666571,2.956065,0.250791,0.009670,-0.148781,0.273830,-0.618294,-0.736702,-0.346126,0.716515,0.465416,-9.549890,-28.261061,16.514057,,,,,,
1480499946.40,0.358093,0.667995,2.954619,0.130172,0.158867,-0.018987,0.275156,-0.619413,-0.735266,-0.319972,0.635221,0.603674,-9.385169,-28.194700,16.720627,,,,,,
1480499946.41,0.359754,0.668964,2.955544,0.042618,0.211688,0.136712,0.276166,-0.620174,-0.734246,-0.265638,0.557201,0.745812,-9.385169,-28.194700,16.720627,,,,,,
1480499946.42,0.359444,0.670313,2.958929,0.032980,0.143616,0.326543,0.275644,-0.621231,-0.733548,-0.208627,0.493134,0.850415,-9.457549,-28.150488,16.754305,,,,,,
1480499946.43,0.356324,0.672558,2.964406,0.064333,-0.017202,0.483560,0.272867,-0.622989,-0.733095,-0.053094,0.409442,0.889330,-9.570800,-28.116831,16.746508,,,,,,
1480499946.44,0.351019,0.675536,2.970940,0.107062,-0.128945,0.557387,0.268334,-0.625316,-0.732787,-0.048562,0.411769,0.889022,-9.570800,-28.116831,16.746508,,,,,,
1480499946.45,0.346045,0.679150,2.977269,0.179936,-0.082601,0.537028,0.263918,-0.628132,-0.731982,-0.004366,0.438786,0.840731,-9.853043,-27.986317,16.801352,,,,,,
1480499946.46,0.342311,0.682764,2.982893,0.163292,0.004401,0.489547,0.260419,-0.630940,-0.730819,-0.007490,0.481297,0.801941,-9.853043,-27.986317,16.801352,,,,,,
1480499946.47,0.339222,0.684232,2.989425,-0.121042,0.137018,0.495515,0.257852,-0.632078,-0.730746,-0.054300,0.530897,0.807330,-10.145386,-27.812977,16.914831,,,,,,
1480499946.48,0.337249,0.680980,2.998004,-0.626144,0.401843,0.474561,0.257089,-0.629554,-0.733189,-0.103753,0.574409,0.821950,-10.145386,-27.812977,16.914831,,,,,,
1480499946.50,0.340812,0.671205,3.006070,-1.204878,0.967838,0.137519,0.261744,-0.621930,-0.738033,-0.161509,0.565259,0.792538,-10.511429,-27.798897,16.713263,,,,,,
1480499946.51,0.356995,0.653648,3.008527,-1.717284,1.903692,-0.573938,0.277426,-0.608086,-0.743818,-0.281058,0.411339,0.776442,-10.511429,-27.798897,16.713263,,,,,,
1480499946.52,0.385685,0.630138,3.006163,-2.064388,2.739100,-1.058589,0.303944,-0.589257,-0.748595,-0.441487,0.098198,0.734725,-10.893394,-28.276438,15.632627,,,,,,
1480499946.53,0.417977,0.601513,3.001660,-2.434564,2.672937,-1.481258,0.334667,-0.565890,-0.753502,-0.655712,-0.271756,0.583169,-10.893394,-28.276438,15.632627,,,,,,
1480499946.54,0.442315,0.567453,2.998857,-2.901117,1.967641,-1.450794,0.360948,-0.537486,-0.762119,-0.870012,-0.631474,0.240863,-11.013471,-29.225872,13.680415,,,,,,
1480499946.55,0.456268,0.537786,3.004613,-2.522733,1.447455,-0.541910,0.378408,-0.512236,-0.770988,-0.878224,-0.968889,-0.324029,-11.013471,-29.225872,13.680415,,,,,,
1480499946.56,0.459261,0.523313,3.013922,-1.184811,0.409937,0.232225,0.383960,-0.499753,-0.776416,-0.439090,-1.293582,-1.156934,-10.780139,-30.235897,11.497006,,,,,,
1480499946.57,0.448765,0.521790,3.019655,-0.116616,-1.076403,0.355111,0.376120,-0.498433,-0.781088,0.995111,-2.128612,-2.860849,-10.890924,-30.412382,10.912228,,,,,,
1480499946.58,0.427271,0.524705,3.022305,0.200255,-2.112378,0.298198,0.358642,-0.500957,-0.787666,2.379945,-2.613346,-4.556480,-10.923160,-30.409647,10.887608,,,,,,
1480499946.59,0.397792,0.528992,3.024430,0.344022,-2.818169,0.333625,0.334434,-0.504664,-0.795907,2.404152,-2.609640,-4.548240,-10.923160,-30.409647,10.887608,,,,,,
1480499946.60,0.362857,0.536350,3.026316,0.673162,-3.265708,0.414557,0.305105,-0.511002,-0.803609,2.263194,-2.195892,-4.615031,-10.923160,-30.409647,10.887608,,,,,,
1480499946.61,0.327328,0.547171,3.027508,0.991270,-3.214968,0.433672,0.274573,-0.520273,-0.808657,1.712793,-1.864660,-3.825957,-10.308212,-30.164652,12.101093,,,,,,
1480499946.62,0.296525,0.559790,3.028477,1.116953,-2.678998,0.437094,0.247599,-0.531008,-0.810386,1.218404,-1.660093,-2.920434,-10.308212,-30.164652,12.101093,,,,,,
1480499946.63,0.272661,0.571924,3.030171,1.009851,-1.963122,0.451432,0.226440,-0.541251,-0.809798,0.925461,-1.320322,-2.233842,-9.756380,-29.795620,13.402841,,,,,,
1480499946.64,0.254783,0.581654,3.033472,0.739945,-1.365261,0.502159,0.210589,-0.549407,-0.808582,0.654096,-0.976304,-1.593670,-9.756380,-29.795620,13.402841,,,,,,
1480499946.66,0.240816,0.588589,3.039197,0.447215,-0.899113,0.628760,0.198362,-0.555188,-0.807724,0.373659,-0.705737,-0.926315,-9.510221,-29.422989,14.368204,,,,,,
1480499946.67,0.229569,0.593227,3.047804,0.214466,-0.503879,0.792678,0.188678,-0.559039,-0.807388,0.160916,-0.476849,-0.345444,-9.510221,-29.422989,14.368204,,,,,,
1480499946.68,0.221614,0.596663,3.058294,0.117588,-0.098611,0.871473,0.181825,-0.561885,-0.806985,0.017653,-0.258519,0.094628,-9.679094,-29.163189,14.779223,,,,,,
1480499946.69,0.217442,0.600403,3.068018,0.214649,0.181075,0.777647,0.178002,-0.564975,-0.805679,-0.016213,-0.036817,0.386093,-9.917183,-29.051865,14.840506,,,,,,
1480499946.70,0.216146,0.606176,3.075149,0.485647,0.271660,0.605404,0.176256,-0.569729,-0.802710,-0.003633,0.157635,0.569433,-9.917183,-29.051865,14.840506,,,,,,
1480499946.71,0.216876,0.615277,3.078868,0.870823,0.259695,0.412919,0.175719,-0.577185,-0.797484,-0.042876,0.506430,0.680236,-10.430034,-28.799370,14.980408,,,,,,
1480499946.72,0.218763,0.628248,3.079209,1.278928,0.169158,0.248624,0.175584,-0.587728,-0.789776,-0.193619,0.885244,0.561566,-10.614768,-28.623293,15.186692,,,,,,
1480499946.73,0.221130,0.644501,3.076383,1.598272,0.028464,0.082159,0.175334,-0.600799,-0.779935,-0.193370,0.898315,0.551724,-10.614768,-28.623293,15.186692,,,,,,
1480499946.74,0.224098,0.662234,3.070954,1.725583,-0.039374,-0.061786,0.175253,-0.614880,-0.768901,-0.223974,1.044293,0.527538,-10.614768,-28.623293,15.186692,,,,,,
1480499946.75,0.229509,0.679625,3.063361,1.694227,0.122638,-0.220013,0.176951,-0.628502,-0.757413,-0.260767,1.107338,0.555753,-10.769300,-27.831852,16.492792,,,,,,
1480499946.76,0.239231,0.695530,3.053487,1.578676,0.388755,-0.383416,0.181914,-0.640792,-0.745850,-0.294662,1.140869,0.633652,-10.769300,-27.831852,16.492792,,,,,,
1480499946.77,0.252412,0.709120,3.042862,1.351674,0.654748,-0.429752,0.189536,-0.651166,-0.734887,-0.336158,1.153303,0.780892,-10.685918,-27.289185,17.427382,,,,,,
1480499946.78,0.267282,0.719321,3.033823,0.987314,0.894001,-0.342921,0.198678,-0.658874,-0.725543,-0.386361,1.122466,0.979815,-10.685918,-27.289185,17.427382,,,,,,
1480499946.79,0.281538,0.725509,3.028359,0.547811,1.009250,-0.165455,0.207864,-0.663516,-0.718706,-0.472696,1.055179,1.170137,-10.725746,-26.906082,17.989525,,,,,,
1480499946.81,0.292609,0.727655,3.027136,0.111565,0.932087,0.018971,0.215397,-0.665120,-0.714996,-0.460712,0.939962,1.358642,-10.856702,-26.803150,18.064470,,,,,,
1480499946.82,0.299748,0.726475,3.029618,-0.236696,0.778321,0.167559,0.220728,-0.664239,-0.714189,-0.466043,0.939080,1.357836,-10.856702,-26.803150,18.064470,,,,,,
1480499946.83,0.303219,0.722960,3.034763,-0.471398,0.600870,0.269893,0.223900,-0.661607,-0.715643,-0.408318,0.864427,1.399023,-11.230521,-26.778355,17.871683,,,,,,
1480499946.84,0.303842,0.718244,3.041593,-0.586848,0.434487,0.341068,0.225277,-0.658063,-0.718472,-0.343548,0.787946,1.366147,-11.230521,-26.778355,17.871683,,,,,,
1480499946.85,0.302069,0.713019,3.048643,-0.621428,0.210475,0.316459,0.225024,-0.654120,-0.722144,-0.310961,0.720908,1.165198,-11.607216,-26.894306,17.451956,,,,,,
1480499946.86,0.298614,0.707245,3.054507,-0.645171,-0.029021,0.208209,0.223635,-0.649742,-0.726514,-0.311891,0.704582,1.040662,-11.607216,-26.894306,17.451956,,,,,,
1480499946.87,0.293831,0.700791,3.058695,-0.670292,-0.239864,0.080508,0.221367,-0.644823,-0.731574,-0.364219,0.694826,0.829444,-11.826379,-27.054441,17.052736,,,,,,
1480499946.88,0.288503,0.694077,3.061583,-0.649942,-0.338897,0.004910,0.218693,-0.639676,-0.736877,-0.361546,0.689679,0.834747,-11.826379,-27.054441,17.052736,,,,,,
1480499946.89,0.284013,0.688010,3.063916,-0.570238,-0.249410,0.005341,0.216465,-0.635001,-0.741563,-0.404789,0.701179,0.781068,-11.769772,-27.277687,16.733265,,,,,,
1480499946.90,0.281638,0.682743,3.065860,-0.494062,-0.054786,-0.008378,0.215630,-0.630924,-0.745278,-0.435341,0.710071,0.776330,-11.769772,-27.277687,16.733265,,,,,,
1480499946.91,0.281855,0.677941,3.066806,-0.435689,0.113251,-0.080224,0.216632,-0.627191,-0.748133,-0.427158,0.707589,0.792368,-11.700455,-27.473822,16.458750,,,,,,
1480499946.93,0.286479,0.668679,3.064783,-0.387468,0.175835,-0.277534,0.221721,-0.619950,-0.752663,-0.350078,0.606202,0.790780,-11.696476,-27.560116,16.316692,,,,,,
1480499946.92,0.283632,0.673396,3.066481,-0.393182,0.149579,-0.161173,0.218757,-0.623645,-0.750475,-0.347114,0.609896,0.788592,-11.696476,-27.560116,16.316692,,,,,,
1480499946.94,0.291045,0.663943,3.061127,-0.324791,0.229102,-0.415078,0.225996,-0.616227,-0.754447,-0.327131,0.559663,0.763389,-11.637074,-27.744812,16.043873,,,,,,
1480499946.96,0.296986,0.660307,3.055556,-0.163857,0.228685,-0.515867,0.231128,-0.613359,-0.755229,-0.301547,0.557787,0.690058,-11.637074,-27.744812,16.043873,,,,,,
1480499946.97,0.303491,0.658177,3.047904,0.025319,0.149723,-0.627983,0.236426,-0.611676,-0.754954,-0.272330,0.541134,0.604792,-11.453078,-27.947392,15.823154,,,,,,
1480499946.98,0.310442,0.657309,3.038382,0.165638,0.092871,-0.713577,0.241829,-0.610989,-0.753798,-0.190026,0.527859,0.408629,-11.453078,-27.947392,15.823154,,,,,,
1480499947.00,0.323511,0.654845,3.013491,0.078906,-0.257732,-1.136877,0.252138,-0.609036,-0.751998,-0.024293,0.487180,0.128295,-11.111467,-28.084703,15.823608,,,,,,
1480499946.99,0.317233,0.656971,3.027364,0.229981,-0.035509,-0.817960,0.247007,-0.610721,-0.752334,-0.019163,0.488865,0.128631,-11.111467,-28.084703,15.823608,,,,,,
1480499947.01,0.332229,0.646520,2.995160,-0.450693,-0.158723,-1.689085,0.260329,-0.602412,-0.754539,0.010957,0.382609,0.014701,-10.528462,-28.235317,15.953692,,,,,,
1480499947.02,0.349839,0.629317,2.973917,-1.152453,0.735522,-2.122003,0.277086,-0.588593,-0.759461,0.004637,0.231125,-0.101333,-10.528462,-28.235317,15.953692,,,,,,
1480499947.03,0.378120,0.606971,2.955635,-1.520300,1.937092,-1.974416,0.303232,-0.570382,-0.763358,-0.056894,0.062661,-0.212244,-9.475486,-28.833408,15.538715,,,,,,
1480499947.04,0.411012,0.584199,2.944883,-1.695429,2.658599,-1.432088,0.333276,-0.551532,-0.764683,-0.134438,-0.494489,-0.312618,-9.109120,-29.274006,14.921740,,,,,,
1480499947.05,0.441356,0.561930,2.944993,-1.972443,2.853056,-0.650735,0.361480,-0.532820,-0.765137,-0.162643,-0.513200,-0.312164,-9.109120,-29.274006,14.921740,,,,,,
1480499947.06,0.463083,0.541790,2.955101,-2.038005,2.358036,0.068342,0.382734,-0.515671,-0.766550,0.163333,-0.990341,-0.622702,-9.144020,-30.045145,13.276977,,,,,,
1480499947.07,0.473640,0.526350,2.968767,-1.669088,1.373303,0.373911,0.394390,-0.502380,-0.769461,0.702915,-1.509888,-1.304361,-9.144020,-30.045145,13.276977,,,,,,
1480499947.08,0.474741,0.516247,2.978680,-1.039597,0.300619,0.222358,0.397537,-0.493620,-0.773501,1.158005,-2.050142,-2.037366,-9.775948,-30.530460,11.615664,,,,,,
1480499947.09,0.469284,0.511891,2.981017,-0.232915,-0.615740,-0.095320,0.394278,-0.489827,-0.777569,1.508798,-2.416011,-2.595203,-9.775948,-30.530460,11.615664,,,,,,
1480499947.10,0.460383,0.515350,2.975477,0.731756,-1.207189,-0.298634,0.386587,-0.492840,-0.779525,1.670817,-2.411762,-3.047348,-9.884524,-30.702646,11.056469,,,,,,
1480499947.12,0.451514,0.527113,2.963930,1.605262,-1.393241,-0.368194,0.377102,-0.503040,-0.777653,0.795261,-1.798962,-2.987300,-9.669630,-30.670834,11.331373,,,,,,
1480499947.13,0.445050,0.545384,2.948687,2.198285,-1.293536,-0.353452,0.368049,-0.518747,-0.771649,0.804314,-1.783255,-2.993305,-9.669630,-30.670834,11.331373,,,,,,
1480499947.14,0.441148,0.567365,2.932591,2.444744,-1.119301,-0.239397,0.360079,-0.537412,-0.762582,0.571150,-1.610797,-2.688773,-9.669630,-30.670834,11.331373,,,,,,
1480499947.15,0.437858,0.590243,2.918573,2.363315,-0.997003,-0.019972,0.352262,-0.556563,-0.752429,0.439303,-1.443300,-2.258283,-8.837298,-29.983173,13.620331,,,,,,
1480499947.16,0.433584,0.611700,2.908998,2.037087,-0.874230,0.244830,0.343946,-0.574260,-0.742918,0.343585,-1.225133,-1.727618,-8.656937,-29.629824,14.482159,,,,,,
1480499947.17,0.427297,0.630252,2.905283,1.579193,-0.763878,0.543318,0.334795,-0.589348,-0.735242,0.211195,-0.724861,-0.675265,-8.656937,-29.629824,14.482159,,,,,,
1480499947.18,0.418277,0.645947,2.907802,1.165005,-0.684039,0.846523,0.324352,-0.601955,-0.729689,0.165226,-0.453419,-0.228837,-8.582988,-28.950518,15.836718,,,,,,
1480499947.19,0.407237,0.659927,2.914804,0.948049,-0.623289,1.035652,0.312913,-0.613059,-0.725427,0.136596,-0.177346,0.143441,-8.582988,-28.950518,15.836718,,,,,,
1480499947.20,0.395424,0.673515,2.922722,0.962272,-0.660184,1.015609,0.301085,-0.623738,-0.721318,0.108918,0.096272,0.402836,-8.894437,-28.393980,16.651508,,,,,,
1480499947.21,0.384021,0.688513,2.928614,1.207362,-0.742017,0.897014,0.289303,-0.635389,-0.715950,0.060108,0.358442,0.535225,-9.089954,-28.125179,16.998499,,,,,,
1480499947.22,0.373764,0.706420,2.931196,1.584215,-0.824572,0.749667,0.277745,-0.649114,-0.708173,-0.036183,0.635183,0.547223,-9.089954,-28.125179,16.998499,,,,,,
1480499947.23,0.365786,0.726896,2.929328,1.900738,-0.863779,0.498351,0.267276,-0.664554,-0.697805,-0.129916,0.943026,0.514624,-9.317484,-27.465904,17.927925,,,,,,
1480499947.24,0.362244,0.747277,2.922539,1.934361,-0.699930,0.145743,0.259948,-0.679644,-0.685938,-0.208694,1.205645,0.519068,-9.317484,-27.465904,17.927925,,,,,,
1480499947.25,0.366339,0.764290,2.910176,1.723593,-0.302686,-0.350728,0.258575,-0.692025,-0.673974,-0.278900,1.376198,0.578317,-9.231318,-26.634869,19.182503,,,,,,
1480499947.27,0.378708,0.776495,2.893001,1.389543,0.157637,-0.731940,0.263749,-0.700783,-0.662827,-0.414155,1.445931,0.733399,-9.231318,-26.634869,19.182503,,,,,,
1480499947.28,0.396775,0.783739,2.876264,0.924573,0.736164,-0.764048,0.273712,-0.705932,-0.653254,-0.589202,1.441620,0.985865,-8.907962,-26.032005,20.139137,,,,,,
1480499947.29,0.416501,0.785880,2.864407,0.343099,1.142444,-0.599331,0.285931,-0.707448,-0.646344,-0.717969,1.427052,1.272992,-8.907962,-26.032005,20.139137,,,,,,
1480499947.30,0.433705,0.782722,2.858003,-0.233855,1.169791,-0.482934,0.297946,-0.705212,-0.643354,-0.778063,1.370297,1.467420,-8.874776,-25.831295,20.410402,,,,,,
1480499947.31,0.446165,0.775577,2.856107,-0.641070,0.988932,-0.368156,0.308105,-0.700128,-0.644121,-0.507934,1.112665,1.587297,-8.874776,-25.831295,20.410402,,,,,,
